"Time (s)","Linear Acceleration x (m/s^2)","Linear Acceleration y (m/s^2)","Linear Acceleration z (m/s^2)"
1.568608300E-2,-2.814598799E0,-1.202581882E0,9.755153656E-1
2.570008300E-2,-2.881875992E0,-1.200490475E0,9.781527519E-1
3.568608300E-2,-2.931411982E0,-1.208381176E0,9.960727692E-1
4.567908300E-2,-3.137077808E0,-7.739521027E0,4.490647793E0
5.567441600E-2,-3.079193592E0,-7.285500526E0,3.304440498E0
6.567091600E-2,-2.678894758E0,-6.949567318E0,2.271069527E0
7.566811600E-2,-2.198361158E0,-6.774827003E0,1.622532368E0
8.566811600E-2,-1.659960270E0,-6.642502785E0,1.395176888E0
9.566611600E-2,-1.408833504E0,-6.741600037E0,1.454122066E0
1.056643660E-1,-1.335713863E0,-6.756856441E0,1.999690056E0
1.156628100E-1,-1.277679920E0,-7.058617592E0,2.208745956E0
1.256614100E-1,-1.446406484E0,-6.567916870E0,2.714484692E0
1.356601370E-1,-1.300736189E0,-6.317961216E0,2.882787704E0
1.456589700E-1,-1.382892370E0,-6.675815582E0,2.629732609E0
1.556578930E-1,-1.318753481E0,-6.435065269E0,2.097350121E0
1.656568930E-1,-1.278741360E0,-6.212799072E0,1.237223625E0
1.756559590E-1,-1.407906651E0,-5.998010635E0,9.061422348E-1
1.856550840E-1,-1.435627937E0,-5.929979324E0,6.805810928E-1
1.956542600E-1,-1.337270498E0,-5.761569977E0,6.821985245E-1
2.056534820E-1,-1.570604205E0,-5.680349350E0,1.637315750E-1
2.156527450E-1,-1.983279228E0,-5.520687580E0,7.025918961E-1
2.256527450E-1,-2.322995663E0,-5.174852371E0,1.334684372E0
2.356520780E-1,-2.465092421E0,-4.874090195E0,1.625632763E0
2.456514410E-1,-2.090023279E0,-4.784020424E0,1.681597233E0
2.556508320E-1,-1.767801642E0,-4.656936646E0,1.583977222E0
2.656502480E-1,-1.382161379E0,-4.315690994E0,1.449658871E0
2.756496880E-1,-8.567928076E-1,-4.319021225E0,1.975575447E0
2.856491490E-1,-9.610580206E-1,-4.615835190E0,2.548619270E0
2.956486300E-1,-1.428032875E0,-4.828519821E0,3.622502327E0
3.056481300E-1,-1.908986092E0,-5.001407623E0,4.652226925E0
3.156476470E-1,-1.972255349E0,-5.071921825E0,5.351047993E0
3.256471800E-1,-2.148314238E0,-5.181761742E0,6.020774841E0
3.356476460E-1,-1.994451165E0,-4.953896523E0,6.362928867E0
3.456476460E-1,-1.710925221E0,-4.503149986E0,5.789520741E0
3.556476460E-1,-1.999836206E0,-4.221250057E0,5.086555958E0
3.656476460E-1,-2.017548084E0,-3.768934727E0,5.279682636E0
3.756476460E-1,-2.158454180E0,-3.583982944E0,6.057495594E0
3.856471790E-1,-2.281180859E0,-3.581355095E0,7.070335865E0
3.956471790E-1,-2.316901922E0,-3.811262608E0,8.101839066E0
4.056476450E-1,-2.943228722E0,-3.701825619E0,8.745271683E0
4.156476450E-1,-2.202869415E0,-3.446979046E0,8.270179749E0
4.256476450E-1,-1.311335087E0,-4.125693321E0,7.957816601E0
4.356476450E-1,-6.937897205E-1,-4.789479733E0,8.417081833E0
4.456476450E-1,-6.204679012E-1,-5.565811157E0,9.159429550E0
4.556476450E-1,-1.302889109E0,-6.673149109E0,9.501548767E0
4.656476450E-1,-1.898201585E0,-7.839430332E0,9.744358063E0
4.756481110E-1,-1.059550047E0,-8.313973427E0,9.243305206E0
4.856481110E-1,-6.479148865E-1,-8.408457756E0,7.963262081E0
4.956481110E-1,-2.729187012E-1,-8.391117096E0,6.676245689E0
5.056481110E-1,-4.119098186E-2,-8.029644012E0,6.192128181E0
5.156481110E-1,-2.538683414E-1,-7.792814255E0,5.828710556E0
5.256476440E-1,3.554487228E-1,-7.197592735E0,5.267575741E0
5.356469440E-1,9.601747990E-2,-6.872999668E0,4.340450764E0
5.456464770E-1,-1.029892802E0,-6.864470005E0,4.432518959E0
5.556462100E-1,-1.770149231E0,-6.621700764E0,3.452527523E0
5.656461430E-1,-1.686772108E0,-6.729725838E0,2.670925617E0
5.756460430E-1,-1.669670343E0,-6.932400227E0,2.188925266E0
5.856459090E-1,-1.554625750E0,-7.205165863E0,2.030080318E0
5.956457750E-1,-1.069330812E0,-7.337707520E0,2.337522030E0
6.056456080E-1,-7.112379074E-1,-7.385044098E0,2.821424007E0
6.156459410E-1,-5.565665960E-1,-7.272921085E0,2.825357437E0
6.256462740E-1,-1.562631130E-1,-7.212868690E0,2.716220856E0
6.356460740E-1,-3.879654408E-1,-7.315927505E0,2.551541328E0
6.456463400E-1,-8.126984835E-1,-6.946299553E0,2.532465935E0
6.556465400E-1,-1.346059203E0,-6.752806664E0,1.881259918E0
6.656466730E-1,-1.751082659E0,-6.874592781E0,1.345731735E0
6.756468060E-1,-2.123016834E0,-6.962050438E0,9.226408005E-1
6.856468720E-1,-2.209931374E0,-7.137657166E0,7.031350136E-1
6.956468720E-1,-2.487571001E0,-7.245650768E0,2.713270187E-1
7.056464050E-1,-1.977413297E0,-6.907176971E0,1.194143295E-2
7.156463710E-1,-1.396436453E0,-6.572189331E0,3.441386223E-1
7.256463370E-1,-1.375038147E0,-6.803083897E0,9.419045448E-1
7.356463030E-1,-7.935261726E-1,-6.692547798E0,1.610318661E0
7.456462690E-1,-9.384858608E-1,-6.779727936E0,2.051408291E0
7.556462350E-1,-1.559581518E0,-7.525255203E0,1.775671959E0
7.656461350E-1,-1.441918612E0,-8.113939285E0,1.374374390E0
7.756455010E-1,-1.363738060E0,-8.709562302E0,8.226947784E-1
7.856453340E-1,-1.074843168E0,-9.468385696E0,-3.135466576E-1
7.956451000E-1,9.146726131E-2,-1.000430489E1,-2.255601406E0
8.056448000E-1,1.314008713E0,-1.038674450E1,-3.269521475E0
8.156778330E-1,2.171992779E0,-1.061628056E1,-2.535367966E0
8.257107990E-1,3.144047737E0,-1.111975384E1,-1.654252529E0
8.357443990E-1,3.066062450E0,-1.179092979E1,-1.022056580E0
8.457773650E-1,2.812947989E0,-1.250258160E1,-6.847727299E-1
8.558100310E-1,3.050295353E0,-1.387674332E1,-1.467743278E0
8.658427640E-1,3.261564970E0,-1.409168625E1,-2.406097889E0
8.758751970E-1,4.774181366E0,-1.245707989E1,-1.914334893E0
8.859080300E-1,5.136237144E0,-1.260060692E1,-4.390103817E-1
8.959401630E-1,4.469539165E0,-1.332891464E1,1.518953800E0
9.059729630E-1,1.572381973E0,-1.281963539E1,4.990172863E0
9.160047630E-1,-3.951946259E0,-1.315176296E1,7.004887581E0
9.260362960E-1,-6.164883137E0,-1.176327515E1,7.579664230E0
9.360686620E-1,-7.542157173E0,-1.058719063E1,8.921458244E0
9.461008280E-1,-6.441335678E0,-9.827603340E0,8.661244392E0
9.561323610E-1,-5.140292168E0,-1.065170288E1,7.635286808E0
9.661638940E-1,-4.990837097E0,-1.161695862E1,8.115022659E0
9.761960600E-1,-6.382646561E0,-1.111914635E1,1.012815475E1
9.862282930E-1,-7.655499458E0,-1.109797668E1,1.074763489E1
9.962605260E-1,-1.105011463E1,-9.859132767E0,9.851797104E0
1.006292759E0,-1.286747932E1,-7.089595795E0,7.182068825E0
1.016324959E0,-1.279687309E1,-6.704881191E0,5.754395008E0
1.026356392E0,-1.101502609E1,-7.717367649E0,5.068859577E0
1.036388525E0,-8.091053009E0,-8.056924820E0,7.025040627E0
1.046420591E0,-5.393704414E0,-7.348805428E0,8.304421425E0
1.056452591E0,-3.462401390E0,-7.373182297E0,8.393261909E0
1.066484657E0,-2.759568214E0,-7.040143967E0,8.177003860E0
1.076516723E0,-4.838733673E0,-5.432162285E0,8.703381538E0
1.086548723E0,-7.160438538E0,-3.616543055E0,9.158516884E0
1.096580789E0,-8.292496681E0,-2.848669052E0,9.688050270E0
1.106612855E0,-8.785499573E0,-2.447291374E0,9.949492455E0
1.116611521E0,-7.837235451E0,-2.776507616E0,1.052323246E1
1.126610254E0,-6.601511002E0,-3.434076786E0,9.931665421E0
1.136608987E0,-5.941478729E0,-3.505189419E0,8.825903893E0
1.146607687E0,-5.440152168E0,-2.851709366E0,6.962190151E0
1.156605953E0,-5.030307770E0,-1.672769785E0,4.546570778E0
1.166604819E0,-4.357471466E0,5.813040957E-2,1.727019072E0
1.176604019E0,-4.453824043E0,9.613874555E-1,-4.398534894E-1
1.186602785E0,-4.219641685E0,1.445734262E0,-2.784284115E0
1.196602185E0,-3.423936844E0,3.024798632E-1,-4.406725883E0
1.206600951E0,-1.816790581E0,-1.669713020E0,-5.309793472E0
1.216599717E0,1.298895836E0,-3.123493671E0,-3.699980259E0
1.226598683E0,3.946527004E0,-5.143688679E0,-3.401122093E0
1.236597316E0,7.746344090E0,-6.422500134E0,-4.898239136E0
1.246596082E0,9.380083084E0,-6.346388817E0,-3.156724453E0
1.256595215E0,6.854928970E0,-6.377673626E0,-3.724925518E0
1.266594315E0,4.894439697E0,-5.552583218E0,-2.759119987E0
1.276592648E0,2.367886543E0,-5.469544411E0,-3.824948549E0
1.344638313E0,-6.827119827E0,-1.028829861E1,3.499815226E0
1.356638313E0,-6.817690849E0,-1.032380676E1,3.475100756E0
1.366638313E0,-6.806022644E0,-1.036609173E1,3.442313910E0
1.376638313E0,-6.793267250E0,-1.040994072E1,3.403600216E0
1.386638313E0,-6.780568123E0,-1.045331001E1,3.363057852E0
1.396638313E0,-6.770873070E0,-1.050226116E1,3.338274717E0
1.406638313E0,-6.765475273E0,-1.056000996E1,3.337163448E0
1.416638313E0,-6.763985634E0,-1.063423252E1,3.360361814E0
1.426638313E0,-6.764787674E0,-1.073353386E1,3.400050163E0
1.436639938E0,-6.766288757E0,-1.085635662E1,3.443677187E0
1.446639938E0,-6.766199112E0,-1.099678707E1,3.475250959E0
1.456639938E0,-6.763333321E0,-1.114256096E1,3.484728575E0
1.466639938E0,-6.758266449E0,-1.128069782E1,3.473259926E0
1.476639938E0,-6.752631187E0,-1.140688515E1,3.449767351E0
1.486639938E0,-6.747672081E0,-1.152285767E1,3.422150850E0
1.496639938E0,-6.744120598E0,-1.163297939E1,3.394754887E0
1.506639938E0,-6.742130280E0,-1.174055099E1,3.368888378E0
1.516639938E0,-6.742179871E0,-1.184706593E1,3.347072124E0
1.526639938E0,-6.744041443E0,-1.195597744E1,3.327498436E0
1.536639938E0,-6.747979164E0,-1.207038689E1,3.309994698E0
1.546640306E0,-6.754526138E0,-1.219081211E1,3.296140194E0
1.556640306E0,-6.762436867E0,-1.231333733E1,3.280416965E0
1.566640972E0,-6.770379066E0,-1.243523884E1,3.256834507E0
1.576640972E0,-6.777802467E0,-1.255300903E1,3.224599361E0
1.586640972E0,-6.784377098E0,-1.266370773E1,3.184568882E0
1.596640972E0,-6.790681839E0,-1.276515770E1,3.142303467E0
1.606640972E0,-6.797284126E0,-1.285834694E1,3.101686478E0
1.616640972E0,-6.804626465E0,-1.294406796E1,3.066186428E0
1.626640972E0,-6.813468933E0,-1.302707958E1,3.036851883E0
1.636640972E0,-6.823843002E0,-1.311113548E1,3.010716438E0
1.646640972E0,-6.836129189E0,-1.319628906E1,2.989780903E0
1.656640972E0,-6.849231720E0,-1.328039646E1,2.970113039E0
1.666640972E0,-6.861466408E0,-1.336001396E1,2.945912123E0
1.676640472E0,-6.872050285E0,-1.343296242E1,2.915602684E0
1.686640938E0,-6.881127357E0,-1.349626255E1,2.885147572E0
1.696640938E0,-6.890150070E0,-1.355244446E1,2.861487389E0
1.706640938E0,-6.898843765E0,-1.360193634E1,2.843418598E0
1.716640938E0,-6.906966209E0,-1.364822197E1,2.824671268E0
1.726640938E0,1.016842461E1,9.331011772E-1,7.799377441E0
1.736640504E0,1.042922306E1,9.739859104E-1,9.065404892E0
1.746640504E0,1.054209328E1,9.651830196E-1,1.036147213E1
1.756640504E0,1.050573063E1,1.039472580E0,1.180037689E1
1.766640504E0,1.026363182E1,1.060846329E0,1.261514473E1
1.776640504E0,1.002509499E1,1.268110037E0,1.300155926E1
1.786640970E0,1.023282433E1,1.350644350E0,1.282694530E1
1.796641203E0,1.036649036E1,1.351795435E0,1.248380852E1
1.806641203E0,1.036694050E1,1.215237617E0,1.246672916E1
1.816641203E0,1.055478764E1,1.183172226E0,1.268786907E1
1.826641203E0,1.053606701E1,1.184477568E0,1.304299736E1
1.836641203E0,1.035754776E1,9.440417290E-1,1.310939121E1
1.846640969E0,1.015700054E1,1.131459713E0,1.333218193E1
1.856640269E0,9.982561111E0,1.285915852E0,1.286843014E1
1.866638935E0,9.823143959E0,1.664560556E0,1.253086090E1
1.876638468E0,9.844345093E0,1.686124802E0,1.207752800E1
1.886638001E0,9.535512924E0,1.380612612E0,1.262898445E1
1.897386272E0,9.325415611E0,8.132852316E-1,1.406902885E1
1.907385805E0,9.325743675E0,-5.998945236E-2,1.547383595E1
1.917385338E0,9.640049934E0,-9.590046406E-1,1.598993587E1
1.927385338E0,1.019966316E1,-1.547670245E0,1.545345402E1
1.937385338E0,1.045405579E1,-1.826530695E0,1.462441921E1
1.947385338E0,1.013280773E1,-1.879716158E0,1.408040237E1
1.957385371E0,9.912792206E0,-1.863134623E0,1.332707214E1
1.967385404E0,9.765561104E0,-1.635602474E0,1.241368771E1
1.977385904E0,9.887290001E0,-1.205019951E0,1.112205887E1
1.987385437E0,9.851758003E0,-8.728420138E-1,9.843619347E0
1.997385437E0,9.536472321E0,-2.762258053E-1,9.249936104E0
2.007385437E0,8.912548065E0,5.132746696E-2,9.074535370E0
2.017385470E0,8.608704567E0,4.098585844E-1,9.275535583E0
2.027385503E0,9.129968643E0,5.488184690E-1,8.971239090E0
2.037385503E0,9.532364845E0,5.626443624E-1,8.891489029E0
2.047385503E0,9.705539703E0,4.420744777E-1,8.841573715E0
2.057385503E0,9.625226021E0,3.784156442E-1,8.840007782E0
2.067385536E0,9.572902679E0,4.667018056E-1,8.603996277E0
2.077385569E0,9.764321327E0,5.376421213E-1,8.101130486E0
2.087385102E0,1.014640808E1,5.147823095E-1,7.674632549E0
2.097384868E0,1.029179859E1,4.845861793E-1,7.465939522E0
2.107384868E0,1.016606617E1,5.604488850E-1,7.370622635E0
2.117384901E0,9.912713051E0,5.352911949E-1,7.277770042E0
2.127385267E0,9.505692482E0,7.246584892E-1,7.098812580E0
2.137385267E0,9.246383667E0,1.122456193E0,7.304071426E0
2.147385267E0,9.091717720E0,1.301552534E0,7.282390118E0
2.157385967E0,8.866549492E0,1.557067752E0,7.307530880E0
2.167386833E0,8.999714851E0,1.838354111E0,7.416424751E0
2.177387333E0,8.725172043E0,2.207315683E0,7.335203171E0
2.187388833E0,8.560199738E0,2.460780382E0,7.641910553E0
2.197388899E0,8.481051445E0,2.743992329E0,7.780596256E0
2.207389132E0,8.509096146E0,3.012604713E0,8.035676003E0
2.217389598E0,8.421369553E0,3.142735243E0,8.583003998E0
2.227388931E0,8.253562927E0,3.287561178E0,9.617986679E0
2.237388231E0,7.941356182E0,3.452820301E0,1.053122902E1
2.247387531E0,7.518771172E0,3.546087265E0,1.133116055E1
2.257387497E0,7.147438049E0,3.684110641E0,1.225557137E1
2.267387497E0,7.165190220E0,3.739278316E0,1.272793198E1
2.277387530E0,7.576351166E0,3.709860563E0,1.222068024E1
2.287387530E0,7.605154991E0,3.537638187E0,1.199133301E1
2.297387530E0,7.507666588E0,3.419852257E0,1.188116169E1
2.307387630E0,7.681584835E0,3.430463791E0,1.173101425E1
2.317386896E0,7.873187065E0,3.123909473E0,1.175670719E1
2.327386162E0,7.742220879E0,2.923040390E0,1.242906284E1
2.337385495E0,7.350200653E0,2.777819157E0,1.310555267E1
2.347385495E0,7.143729210E0,3.464290619E0,1.279979610E1
2.357385495E0,6.811918736E0,3.562745810E0,1.266843605E1
2.367385461E0,6.746320248E0,3.603527069E0,1.237514400E1
2.377385461E0,6.438760281E0,3.521620989E0,1.158315468E1
2.387385494E0,6.525163651E0,3.424271107E0,1.127415752E1
2.397385494E0,7.060589790E0,2.892992973E0,1.162109566E1
2.407385494E0,7.288403034E0,1.951921701E0,1.225606918E1
2.417385460E0,7.649291992E0,1.131296158E0,1.369048119E1
2.427385126E0,7.732048035E0,3.585276008E-1,1.483704948E1
2.437385126E0,7.851831436E0,-2.936404347E-1,1.558168221E1
2.447384692E0,7.842835903E0,-5.432795286E-1,1.546392250E1
2.457384292E0,7.077884674E0,-5.279223323E-1,1.450210953E1
2.467384292E0,6.332787037E0,-3.927747607E-1,1.307507515E1
2.477384258E0,5.769720078E0,-4.837430120E-1,1.138686562E1
2.487383258E0,5.290719509E0,-5.229135752E-1,1.021579742E1
2.497383824E0,4.761730194E0,-6.661567688E-1,9.431815147E0
2.507384057E0,4.518279076E0,-9.346120358E-1,9.115119934E0
2.517384057E0,4.823831558E0,-1.091848969E0,8.685327530E0
2.527383790E0,5.469638348E0,-1.417500615E0,8.324722290E0
2.537383823E0,6.312813759E0,-1.587812304E0,8.341924667E0
2.547384089E0,6.289393425E0,-1.727221608E0,8.331580162E0
2.557383655E0,7.124279022E0,-1.944762468E0,8.351659775E0
2.567383621E0,7.424078941E0,-2.236008644E0,8.385505676E0
2.577382887E0,7.430242538E0,-2.245901585E0,8.115033150E0
2.587382553E0,7.209175110E0,-2.589237928E0,7.672255516E0
2.597381853E0,7.233089447E0,-2.609366417E0,7.243868351E0
2.607383853E0,7.471436977E0,-2.831374645E0,7.376299381E0
2.617384553E0,7.808176041E0,-3.158512115E0,7.395211697E0
2.627385253E0,7.751088142E0,-3.380771160E0,7.398112774E0
2.637385919E0,8.039669037E0,-3.349077702E0,8.085352898E0
2.647385952E0,8.371554375E0,-3.760745525E0,7.844014645E0
2.657385952E0,9.020245552E0,-3.643595219E0,8.159859657E0
2.667385952E0,9.504798889E0,-3.478479147E0,8.774479866E0
2.677385918E0,9.615931511E0,-3.323993206E0,8.671487808E0
2.687385918E0,8.972835541E0,-2.834310770E0,8.174129486E0
2.697385951E0,8.822012901E0,-1.586686730E0,7.258261681E0
2.707385951E0,8.523226738E0,-5.709917545E-1,6.807898045E0
2.717385951E0,9.050061226E0,5.680465698E-2,7.220930099E0
2.727385917E0,9.231115341E0,3.983768225E-1,8.281278610E0
2.737385950E0,9.137719154E0,2.346469164E-1,9.626121521E0
2.747386416E0,9.033392906E0,1.204924583E-1,1.089490891E1
2.757386816E0,8.960310936E0,-6.489874125E-1,1.312026119E1
2.767386816E0,8.009462357E0,-1.162610292E0,1.527103138E1
2.777386816E0,6.769282341E0,-1.326872587E0,1.626037598E1
2.787386782E0,5.356531143E0,-7.221671343E-1,1.653916740E1
2.797387115E0,2.960708618E0,8.864303827E-1,1.566387939E1
2.807386448E0,6.725068092E-1,2.547073364E0,1.488002396E1
2.817385748E0,-1.014695644E0,3.151062727E0,1.423695374E1
2.827386681E0,-1.979360580E0,2.832588673E0,1.441093063E1
2.837387347E0,-2.655634403E0,2.222626686E0,1.509773445E1
2.847387813E0,-3.497499466E0,1.189297915E0,1.538464165E1
2.857388279E0,-4.287372589E0,2.840344429E0,1.640765381E1
2.867388279E0,-7.564763546E0,2.598797798E0,1.686385918E1
2.877388979E0,-1.022313118E1,2.801591158E0,1.742096710E1
2.887389312E0,-1.225227737E1,3.477325201E0,1.941754723E1
2.897390045E0,-1.487989807E1,2.637190819E0,2.138155365E1
2.907387945E0,-1.598961544E1,1.661095142E0,2.247648621E1
2.917387945E0,-1.582535553E1,9.272310734E-1,2.259531403E1
2.927387945E0,-1.478423119E1,5.367288589E-1,2.143875122E1
2.937387945E0,-1.281366825E1,7.793331146E-1,1.852906036E1
2.947387911E0,-1.053055191E1,1.023378611E0,1.595093155E1
2.957387944E0,-8.870224953E0,1.194906712E0,1.404123116E1
2.967387977E0,-7.400071144E0,1.387043953E0,1.284464741E1
2.977387977E0,-6.428958416E0,1.339333057E0,1.211246109E1
2.987387943E0,-6.928806305E0,1.735463619E0,9.522468567E0
2.997387909E0,-6.894304752E0,2.563841820E0,9.134821892E0
3.007387942E0,-7.131546021E0,2.212435246E0,9.856282234E0
3.017387942E0,-6.967761040E0,1.182868004E0,1.125844097E1
3.027387942E0,-5.587995529E0,5.627870560E-1,1.293762207E1
3.037387908E0,-4.226229668E0,1.655296326E0,1.346664810E1
3.047387908E0,-3.115447521E0,2.490757942E0,1.356457043E1
3.057387941E0,-2.112360477E0,3.061934948E0,1.230295563E1
3.067387941E0,-1.528063893E0,3.881157160E0,1.026235771E1
3.077387941E0,-1.257467747E0,4.406104088E0,9.586228371E0
3.087387941E0,-1.210132718E0,5.230281353E0,1.000246429E1
3.097387474E0,-1.814643145E0,5.922378063E0,1.063650131E1
3.107388140E0,-2.770587683E0,6.055641174E0,1.006374454E1
3.117388873E0,-4.167817116E0,6.437938690E0,1.097670555E1
3.127388873E0,-5.800683022E0,6.677389145E0,1.114111900E1
3.137388873E0,-5.804899216E0,8.253086090E0,1.038358879E1
3.147388839E0,-6.055940628E0,8.054752350E0,1.086546516E1
3.157388839E0,-5.517599583E0,7.590498924E0,9.001659393E0
3.167388872E0,-4.521063805E0,7.568494797E0,8.218156815E0
3.177388872E0,-4.831639290E0,7.973325253E0,7.974286079E0
3.187388872E0,-4.942625999E0,8.777817726E0,6.711591721E0
3.197388838E0,-5.494943142E0,8.944478035E0,6.376941204E0
3.207388871E0,-5.490260124E0,9.005125999E0,6.474808693E0
3.217388204E0,-5.310352325E0,9.141527176E0,5.609909058E0
3.227388204E0,-5.520336151E0,8.664930344E0,5.490247726E0
3.237387837E0,-5.929183960E0,7.735892296E0,6.597832680E0
3.247387837E0,-6.743116379E0,7.071526527E0,6.870814323E0
3.257387803E0,-6.775194168E0,7.634397507E0,5.871040821E0
3.267387103E0,-8.282113075E0,7.537035942E0,5.188514709E0
3.277387136E0,-9.343313217E0,7.212470055E0,5.125376225E0
3.287387136E0,-1.021596050E1,6.951901436E0,4.937436581E0
3.297386436E0,-1.051952934E1,6.713221550E0,4.690960884E0
3.307385702E0,-1.206849194E1,6.402985096E0,5.532730579E0
3.317385735E0,-1.323580360E1,7.146738052E0,5.892949104E0
3.327385768E0,-1.553317928E1,7.010148048E0,4.426734924E0
3.337385768E0,-1.567306614E1,6.991715431E0,4.348002434E0
3.347385734E0,-1.724650764E1,3.887562275E0,2.539710999E0
3.357385700E0,-1.626937675E1,3.761239052E0,3.673062325E0
3.367385733E0,-1.511121178E1,3.614828110E0,5.523574829E0
3.377385733E0,-1.480300713E1,3.710053921E0,6.951726913E0
3.387385733E0,-1.557358360E1,4.869194508E0,8.084419250E0
3.397385733E0,-1.490253830E1,4.312884331E0,1.013199615E1
3.407385733E0,-1.355680752E1,4.129182339E0,1.141707039E1
3.417385699E0,-1.203083611E1,3.806859016E0,1.114464951E1
3.427385732E0,-1.084195614E1,2.406029224E0,1.169008541E1
3.437385032E0,-1.099621201E1,2.054282665E0,1.101624489E1
3.447385032E0,-1.151512814E1,1.594746113E0,8.871076584E0
3.457384298E0,-1.253134537E1,1.885241985E0,7.189143181E0
3.467384264E0,-1.463564110E1,2.634185314E0,4.976328850E0
3.477384297E0,-1.424549007E1,3.305285931E0,6.421126366E0
3.487384297E0,-1.359904671E1,2.633278847E0,8.473949432E0
3.497384297E0,-1.373284626E1,4.677426338E0,9.358776093E0
3.507384263E0,-1.099317551E1,6.545741081E0,1.085826492E1
3.517384963E0,-1.057751560E1,7.601251125E0,1.048348045E1
3.527384996E0,-7.105855465E0,1.025264454E1,4.419880867E0
3.537385362E0,-1.269015408E1,1.233399868E1,7.444658279E0
3.547385362E0,-8.407473564E0,1.216741943E1,1.211246490E1
3.557385362E0,-1.036050224E1,9.994070053E0,6.661714077E0
3.567386028E0,-1.132423401E1,9.650728226E0,5.554282665E0
3.577385994E0,-8.544690132E0,5.540552616E0,3.234602690E0
3.587386027E0,-7.572989464E0,3.675253391E0,2.524045944E0
3.597386727E0,-7.870388031E0,4.826906681E0,1.870113850E0
3.607387427E0,-7.774189949E0,3.847357273E0,3.823681593E0
3.617387393E0,-5.140810966E0,2.127967834E0,6.608355045E0
3.627387393E0,-2.958525181E0,1.550981998E0,8.221614838E0
3.637387426E0,-2.800154209E0,2.091670036E0,8.274673462E0
3.647387426E0,-4.132825851E0,2.885771275E0,7.678341866E0
3.657387426E0,-5.614010811E0,4.385388851E0,6.750814438E0
3.667387392E0,-6.013893127E0,5.105354309E0,5.780580997E0
3.677387425E0,-7.241707325E0,5.700808525E0,5.597720623E0
3.687387425E0,-7.994099617E0,7.287779331E0,4.549448013E0
3.697387425E0,-7.385266781E0,7.150481701E0,4.098173141E0
3.707387425E0,-4.710277081E0,6.387141228E0,4.574939728E0
3.717387425E0,-4.697022915E0,6.965810299E0,5.103315830E0
3.727387391E0,-5.170142174E0,7.782494545E0,5.370263577E0
3.737388124E0,-4.440258503E0,7.772269726E0,6.269922256E0
3.747388157E0,-4.554967880E0,6.777984619E0,7.331246853E0
3.757388857E0,-3.952985287E0,6.265700817E0,7.416691303E0
3.767388857E0,-5.847581387E0,4.828556538E0,7.479658604E0
3.777388823E0,-6.849509239E0,5.384232998E0,7.037015915E0
3.787388856E0,-8.714190483E0,5.663812160E0,5.783191681E0
3.797388856E0,-1.056691074E1,7.161814213E0,5.899683952E0
3.807388856E0,-1.275339699E1,6.897089958E0,5.048197746E0
3.817388822E0,-1.513610172E1,6.048578262E0,4.548100471E0
3.827388788E0,-1.647923470E1,5.795451641E0,3.401714325E0
3.837388821E0,-1.919747162E1,5.943042755E0,3.943467379E0
3.847388821E0,-1.951479912E1,5.436381340E0,3.382194042E0
3.857388821E0,-1.828411674E1,4.412216663E0,5.306444168E0
3.867388821E0,-1.583272171E1,3.097257376E0,7.725259781E0
3.877388821E0,-1.393975353E1,2.271279097E0,8.981356621E0
3.887388787E0,-1.262374306E1,1.516288280E0,9.376101494E0
3.897388820E0,-1.360647869E1,-8.418717384E-1,1.358756447E1
3.907388820E0,-1.404189205E1,-2.218967915E0,1.382580185E1
3.917388820E0,-1.564863777E1,7.648963928E-1,1.508730507E1
3.927388786E0,-1.701048088E1,-1.607998371E0,1.446364594E1
3.937388786E0,-1.432175446E1,-3.121619225E0,1.271180153E1
3.947388819E0,-1.439449406E1,-5.519052982E0,1.327167702E1
3.957388819E0,-1.316626263E1,-6.919103622E0,1.215960312E1
3.967388819E0,-1.182302475E1,-8.408544540E0,1.042168999E1
3.977388785E0,-7.839035511E0,-5.161025524E0,9.302406311E0
3.987388818E0,-6.580177307E0,-2.462469578E0,7.409190655E0
3.997388851E0,-6.407309532E0,-9.382419586E-1,4.006461620E0
4.007388851E0,-7.081650734E0,1.112937927E-1,2.838884354E0
4.017388851E0,-7.659617901E0,-1.574110985E-1,2.064555168E0
4.027388851E0,-6.752166271E0,1.141222477E0,3.637024403E0
4.037388817E0,-6.613779545E0,8.187508583E-1,4.894749641E0
4.047388817E0,-6.284338951E0,-5.167069435E-1,5.782274723E0
4.057388850E0,-3.148642540E0,-1.330751896E0,7.640047550E0
4.067388850E0,-2.719578266E0,-3.769087791E-1,8.091528893E0
4.077388850E0,-3.917978764E0,-9.035272598E-1,1.104588318E1
4.087388816E0,-4.669136047E0,-8.798570633E-1,1.294078732E1
4.097388849E0,-3.874271393E0,-9.156613350E-1,1.498978615E1
4.107388882E0,-2.849252701E0,-1.727285624E0,1.517288589E1
4.117388882E0,-1.990766525E0,-2.131619453E0,1.378824806E1
4.127388882E0,-1.291170716E0,-2.184910774E0,1.214805126E1
4.137388848E0,-2.421746492E0,-1.865113974E0,1.177106571E1
4.147388881E0,-4.927796364E0,-1.879225254E0,1.328197098E1
4.157388881E0,-7.077580452E0,-2.035004377E0,1.443645096E1
4.167388881E0,-8.058277130E0,-2.589264154E0,1.422684669E1
4.177388881E0,-7.907946587E0,-3.113013029E0,1.365359688E1
4.187388881E0,-8.011965752E0,-3.064799309E0,1.307737541E1
4.197388847E0,-7.847901344E0,-2.857504129E0,1.194398975E1
4.207388880E0,-9.224270821E0,-2.665680170E0,1.109746170E1
4.217388913E0,-1.148258686E1,-2.538981199E0,1.027945137E1
4.227388913E0,-1.176281929E1,-1.747174263E0,8.813796997E0
4.237388879E0,-1.332264137E1,-3.036714315E0,9.290970802E0
4.247388845E0,-1.434573936E1,-3.363743305E0,8.803466797E0
4.257388878E0,-1.619341469E1,-3.826848269E0,7.870286942E0
4.267388878E0,-1.727608871E1,-5.437622070E0,9.221029282E0
4.277388878E0,-1.701160812E1,-6.553363323E0,9.769865036E0
4.287388844E0,-1.539905167E1,-6.236566544E0,9.574892044E0
4.297388844E0,-1.424667549E1,-6.406303406E0,8.434903145E0
4.307388877E0,-1.298057556E1,-6.239406586E0,8.212173462E0
4.317388877E0,-1.210575104E1,-5.790205479E0,8.087060928E0
4.327388877E0,-1.180624771E1,-5.188853264E0,7.090842247E0
4.337388877E0,-1.198735809E1,-5.288629532E0,7.313931942E0
4.347388843E0,-1.247477150E1,-6.000516891E0,8.392639160E0
4.357388809E0,-1.301403809E1,-6.851823330E0,8.100089073E0
4.367388842E0,-1.303325081E1,-7.475670815E0,7.203322887E0
4.377388842E0,-1.315090179E1,-7.885235786E0,7.640586376E0
4.387388842E0,-1.254026222E1,-7.848651886E0,9.115444183E0
4.397388808E0,-1.279470539E1,-8.147080421E0,9.507277489E0
4.407388108E0,-1.071687698E1,-7.571194172E0,9.896028519E0
4.417388141E0,-8.341879845E0,-6.933633327E0,1.199832630E1
4.427388141E0,-3.417301178E0,-6.054251194E0,1.378711605E1
4.437387441E0,-1.990309954E0,-7.305492401E0,1.760457420E1
4.447386707E0,-2.270394564E0,-8.442757607E0,1.970734406E1
4.457386740E0,-3.324954510E0,-9.055875778E0,1.908160782E1
4.467386773E0,-5.241207600E0,-8.846298218E0,1.800721931E1
4.477386773E0,-5.480173111E0,-8.758301735E0,1.562503624E1
4.487386773E0,-4.092818737E0,-2.485386372E0,1.611819077E1
4.497386073E0,-2.346606016E0,1.140824318E0,1.385406780E1
4.507386039E0,-1.427972794E0,1.068488121E0,9.330780983E0
4.517386039E0,-2.576013088E0,1.018578053E0,3.058780670E0
4.527385372E0,-4.983674049E0,7.686793804E-1,-1.493844032E0
4.537384672E0,-8.149099350E0,-4.462242126E-3,1.165008545E-2
4.547384672E0,-1.093295288E1,-2.766471386E0,3.596489429E0
4.557384638E0,-1.139933014E1,-5.103362560E0,6.860838890E0
4.567384671E0,-9.304122925E0,-5.512815475E0,1.054880714E1
4.577384704E0,-8.411954880E0,-6.102948189E0,1.268535519E1
4.587384704E0,-8.162105560E0,-5.839706898E0,1.172878647E1
4.597384670E0,-8.956844330E0,-4.889365196E0,9.275164604E0
4.607384636E0,-1.092659187E1,-4.855701447E0,7.294038773E0
4.617384669E0,-1.272710419E1,-3.812726974E0,6.890563965E0
4.627384669E0,-1.397339821E1,-2.109508514E0,5.367254257E0
4.637384669E0,-1.415063667E1,-1.411902905E0,4.232511997E0
4.647384669E0,-1.290233612E1,-1.322682381E0,4.639381409E0
4.657384669E0,-1.131437397E1,-1.077424526E0,5.385654926E0
4.667384635E0,-1.104039955E1,-4.850940704E-1,6.451979637E0
4.677384668E0,-1.110823631E1,-5.163841248E-1,6.415937901E0
4.687384668E0,-1.027622604E1,1.428279877E0,7.220345974E0
4.697384668E0,-1.063339424E1,1.499516249E0,6.820495129E0
4.707385334E0,-1.142350674E1,1.281930923E0,6.638317108E0
4.717385300E0,-1.149424362E1,1.334151268E0,3.034617901E0
4.727385333E0,-1.140679550E1,1.197027445E0,-9.745512009E-1
4.737386033E0,-1.063388252E1,1.321373940E0,-3.555555820E0
4.747386733E0,-1.013509941E1,1.261463165E0,-2.562489986E0
4.757386699E0,-9.749503136E0,6.165831089E-1,-1.883683205E-1
4.767386699E0,-1.052860641E1,-1.385000229E0,2.548473120E0
4.777386732E0,-1.208845520E1,-4.159000397E0,6.200048923E0
4.787386732E0,-1.228583145E1,-6.468283653E0,1.008543301E1
4.797387432E0,-1.168264389E1,-8.172021866E0,1.224415779E1
4.807386998E0,-1.169621277E1,-9.514352798E0,1.164048386E1
4.817386964E0,-1.246431351E1,-1.084730625E1,7.984769821E0
4.827387630E0,-1.444981575E1,-1.160403824E1,2.661099195E0
4.837388363E0,-1.459298229E1,-1.184181023E1,-1.789392471E0
4.847388363E0,-1.092387009E1,-1.186063576E1,-2.788254738E0
4.857388363E0,-8.472010612E0,-1.254343128E1,3.335837841E0
4.867388329E0,-7.767719269E0,-1.316213608E1,1.065414810E1
4.877388329E0,-4.619956493E0,-1.438896656E1,1.403872681E1
4.887388362E0,-2.588876724E0,-1.402289200E1,1.541088104E1
4.897388362E0,-4.951786041E0,-1.066097355E1,1.139373016E1
4.907388362E0,-7.399152279E0,-7.248773575E0,8.449383736E0
4.917388328E0,-8.510127068E0,-6.193800449E0,7.666885376E0
4.927388361E0,-9.536466599E0,-5.909854889E0,7.950846672E0
4.937388361E0,-1.003204155E1,-6.883557320E0,8.943453789E0
4.947388361E0,-1.090303612E1,-8.452077866E0,9.646614075E0
4.957388361E0,-1.247620583E1,-9.323251724E0,9.842790604E0
4.967388361E0,-1.150648308E1,-9.886820793E0,1.041903782E1
4.977388327E0,-9.826037407E0,-9.788585663E0,7.949709892E0
4.987388360E0,-8.474392891E0,-8.398916245E0,6.972202301E0
4.997388393E0,-7.654735088E0,-7.511593819E0,7.460966110E0
5.007388393E0,-7.896082878E0,-5.371385098E0,7.999949932E0
5.017388393E0,-8.588741302E0,-1.522560358E0,7.330573082E0
5.027388359E0,-7.982877731E0,9.344781637E-1,7.578099728E0
5.037388392E0,-8.905950546E0,1.964032888E0,7.743901253E0
5.047388392E0,-8.904062271E0,1.149165988E0,8.570955276E0
5.057388392E0,-7.268587589E0,-4.464662552E0,1.035490704E1
5.067388358E0,-6.022340775E0,-7.466778755E0,8.944089890E0
5.077388324E0,-7.595596790E0,-6.063947201E0,4.194367409E0
5.087388357E0,-9.037223816E0,-4.072134018E0,2.760075331E0
5.097388357E0,-9.124053955E0,-4.659100533E0,3.762446404E0
5.107388790E0,-8.343929291E0,-5.119618416E0,4.411047459E0
5.117388790E0,-7.934294224E0,-4.950546265E0,4.956221581E0
5.127388790E0,-7.681402206E0,-3.735314608E0,4.416282654E0
5.137388756E0,-8.586300850E0,-9.305665493E-1,8.039664268E0
5.147388789E0,-1.029093266E1,-1.609502554E0,7.170668125E0
5.157388789E0,-1.059168434E1,-2.833053350E0,5.491990089E0
5.167388789E0,-9.755507469E0,-2.732331753E0,4.460875511E0
5.177388755E0,-8.309412956E0,-2.242950201E0,5.648782730E0
5.187388755E0,-9.489376068E0,-2.579243898E0,6.984277248E0
5.197388788E0,-1.096344757E1,-3.700067043E0,6.712984085E0
5.207388788E0,-1.202545547E1,-4.880784035E0,5.835772038E0
5.217388788E0,-1.303216362E1,-6.123203278E0,5.824849129E0
5.227388754E0,-1.359043217E1,-7.137413025E0,5.850253105E0
5.237388787E0,-1.358076477E1,-8.001861572E0,6.223051548E0
5.247388820E0,-1.268033981E1,-9.060962677E0,5.930607796E0
5.257388820E0,-1.251806355E1,-9.902130127E0,5.144145012E0
5.267388820E0,-1.171385384E1,-1.087215233E1,6.571630478E0
5.277388820E0,-1.360985565E1,-1.069297600E1,7.914405823E0
5.287388786E0,-1.500166702E1,-9.430988312E0,7.273487568E0
5.297388786E0,-1.470425701E1,-8.513105392E0,6.378015041E0
5.307388819E0,-1.475395966E1,-8.092846870E0,4.753869057E0
5.317388819E0,-1.415853500E1,-7.496878147E0,1.880198956E0
5.327388819E0,-1.149055386E1,-7.266402245E0,1.003551483E0
5.337388785E0,-8.976011276E0,-8.640480995E0,5.189296722E0
5.347388818E0,-7.085813522E0,-8.606610298E0,1.042748451E1
5.357388851E0,-7.646195412E0,-8.704204559E0,1.364858532E1
5.367388851E0,-8.072500229E0,-8.915803909E0,1.485584736E1
5.377388851E0,-1.054434586E1,-9.708926201E0,1.634186363E1
5.387388817E0,-1.263159180E1,-9.248450279E0,1.597334862E1
5.397388850E0,-1.267275429E1,-8.001250267E0,1.386380196E1
5.407388850E0,-1.222949409E1,-7.045454502E0,1.135431290E1
5.417388850E0,-1.081662941E1,-6.933929920E0,9.135374069E0
5.427388850E0,-9.062747955E0,-6.845019341E0,1.057863426E1
5.437388150E0,-6.478773594E0,-6.981228828E0,1.320268154E1
5.447387416E0,-4.727755547E0,-7.568399429E0,1.364599800E1
5.457386716E0,-5.017869473E0,-7.931972504E0,1.230590248E1
5.467386749E0,-4.420061588E0,-7.919174194E0,9.776753426E0
5.477386749E0,-4.729839325E0,-8.607031822E0,7.926990509E0
5.487386715E0,-5.997071743E0,-9.450589180E0,6.911964417E0
5.497386681E0,-7.576905251E0,-9.970332146E0,6.895696640E0
5.507386281E0,-8.560143471E0,-9.423934937E0,6.879261017E0
5.517386281E0,-9.337790489E0,-8.524885178E0,6.347291470E0
5.527386281E0,-9.462971687E0,-6.221483231E0,6.077645302E0
5.537386247E0,-9.358664513E0,-4.510862827E0,6.127308369E0
5.547386247E0,-8.793570518E0,-3.205921173E0,6.600200653E0
5.557386280E0,-8.236942291E0,-2.152561903E0,7.677034855E0
5.567386280E0,-8.217608452E0,-1.555994272E0,8.637965202E0
5.577386280E0,-8.168042183E0,-1.035539389E0,8.233911514E0
5.587386280E0,-8.087512970E0,-3.407380581E-1,7.994634151E0
5.597386246E0,-7.997671127E0,-2.224655151E-1,7.131951332E0
5.607386212E0,-8.785263062E0,7.879304886E-2,7.127259254E0
5.617386245E0,-8.817481995E0,1.131784916E-1,7.059085846E0
5.627386245E0,-8.626498222E0,1.225768089E0,6.167362690E0
5.637386245E0,-7.662331581E0,1.665784597E0,5.507309437E0
5.647386211E0,-7.246325493E0,1.921853781E0,5.140768051E0
5.657386211E0,-7.446694851E0,1.785757542E0,5.218966961E0
5.667386244E0,-7.640458584E0,1.341122866E0,5.172478676E0
5.677386244E0,-7.972970009E0,8.413181305E-1,5.396481514E0
5.687386244E0,-8.556930542E0,1.432032585E-1,4.954352856E0
5.697386210E0,-9.177297592E0,-7.980968952E-1,3.673577785E0
5.707386243E0,-9.133021355E0,-1.901708841E0,3.206000328E0
5.717386276E0,-8.283542633E0,-3.311757088E0,3.257313728E0
5.727386276E0,-8.358765602E0,-5.052756310E0,3.848169327E0
5.737386976E0,-8.762759209E0,-6.611488342E0,4.410053253E0
5.747387676E0,-8.665877342E0,-8.418308258E0,5.523146629E0
5.757388376E0,-1.003822136E1,-1.089057732E1,7.261126041E0
5.767388376E0,-1.189163589E1,-1.307167053E1,8.172672272E0
5.777388409E0,-1.326376152E1,-1.331768131E1,7.107402802E0
5.787388409E0,-1.545333290E1,-1.300473690E1,4.292907715E0
5.797388409E0,-1.742283058E1,-1.290206146E1,2.000778198E0
5.807388809E0,-1.687761116E1,-1.198574448E1,-4.178285599E-1
5.817388842E0,-1.542595387E1,-1.025464249E1,-8.101115227E-1
5.827388875E0,-1.251895714E1,-7.567240715E0,3.082689047E0
5.837388875E0,-1.017043304E1,-6.061953545E0,5.980019569E0
5.847388841E0,-8.025336266E0,-5.712275028E0,9.619738579E0
5.857388807E0,-8.677164078E0,-7.547679424E0,9.823505402E0
5.867388840E0,-7.105486393E0,-9.163584709E0,1.209795856E1
5.877388840E0,-5.087221146E0,-1.100147438E1,1.325800991E1
5.887388840E0,-6.865740776E0,-1.076078796E1,9.638540268E0
5.897388840E0,-6.941037178E0,-8.312112808E0,8.440876007E0
5.907388840E0,-6.727731228E0,-5.956640720E0,8.713313103E0
5.917388806E0,-7.247659206E0,-5.256965637E0,9.623791695E0
5.927388839E0,-8.078242302E0,-5.833764553E0,9.378215790E0
5.937388839E0,-9.912927628E0,-5.887800217E0,9.460195541E0
5.947388839E0,-1.191020107E1,-6.320304394E0,8.418508530E0
5.957388805E0,-1.272690582E1,-6.740798950E0,8.036701202E0
5.967388771E0,-1.265943336E1,-7.351162910E0,7.874953270E0
5.977388804E0,-1.218076229E1,-7.778179169E0,7.693778992E0
5.987388804E0,-1.146867466E1,-7.766037941E0,7.584329605E0
5.997388804E0,-1.143408871E1,-7.791817665E0,7.656619072E0
6.007388770E0,-1.005626583E1,-6.188167572E0,8.585254669E0
6.017388770E0,-9.723409653E0,-4.767864704E0,7.325530052E0
6.027388803E0,-9.739012718E0,-3.859700203E0,6.509374142E0
6.037388803E0,-9.986786842E0,-3.335286856E0,6.178712845E0
6.047388803E0,-1.034029675E1,-2.594881773E0,6.479961395E0
6.057388803E0,-1.023944283E1,-1.670638800E0,6.414843082E0
6.067388769E0,-9.382706642E0,-1.306747913E0,5.836640358E0
6.077388735E0,-9.363245010E0,-1.322069168E0,5.873485088E0
6.087388768E0,-7.881714821E0,-1.182710409E0,5.747614861E0
6.097388768E0,-7.597883701E0,-1.667878628E0,6.220487595E0
6.107388768E0,-7.997621536E0,-1.513662338E0,6.087903023E0
6.117388734E0,-7.938444138E0,-7.562828064E-1,5.664866924E0
6.127388734E0,-8.307349205E0,-7.237775326E-1,5.333499908E0
6.137388767E0,-8.922456741E0,-8.215894699E-1,5.391283989E0
6.147388767E0,-9.421180725E0,-8.346014023E-1,5.773892879E0
6.157388767E0,-8.953392029E0,-1.091101646E0,6.174645901E0
6.167388733E0,-8.317824364E0,-1.352726698E0,6.829410553E0
6.177388766E0,-8.025498390E0,-1.718332767E0,6.982907295E0
6.187388766E0,-8.390424728E0,-2.641390800E0,7.190197468E0
6.197388766E0,-8.979458809E0,-3.908573866E0,7.032279015E0
6.207388766E0,-1.032249641E1,-5.550966263E0,6.257323742E0
6.217388766E0,-1.075617790E1,-6.748247623E0,5.790419102E0
6.227388732E0,-1.060992718E1,-7.733614922E0,5.207393646E0
6.237388765E0,-1.068015766E1,-8.668505669E0,4.563076496E0
6.247388798E0,-1.110144138E1,-9.562038422E0,3.786709547E0
6.257388798E0,-1.124777985E1,-1.029470539E1,3.472866535E0
6.267388798E0,-1.113843822E1,-1.065518188E1,4.692799568E0
6.277388764E0,-1.143266964E1,-1.103372765E1,5.783697128E0
6.287388797E0,-1.289880371E1,-1.093395805E1,5.563412666E0
6.297388797E0,-1.399899769E1,-1.058465481E1,4.211791515E0
6.307388797E0,-1.315052795E1,-1.012054443E1,2.007431984E0
6.317388763E0,-1.228946304E1,-1.011510658E1,6.481761932E-1
6.327388729E0,-1.044191551E1,-1.033269405E1,2.172950268E0
6.337388762E0,-8.070737839E0,-1.003665161E1,8.427745819E0
6.347388762E0,-7.051087856E0,-9.855339050E0,1.346509552E1
6.357388762E0,-6.235194206E0,-9.614052773E0,1.616352654E1
6.367388762E0,-6.880766392E0,-1.069654179E1,1.624114609E1
6.377388762E0,-6.835646152E0,-1.067841339E1,1.628439140E1
6.387388728E0,-1.058124256E1,-1.119850445E1,1.324248505E1
6.397388761E0,-9.850038528E0,-1.133055878E1,9.501279831E0
6.407388761E0,-7.927304268E0,-1.202149868E1,8.783580780E0
6.417388761E0,-6.148158073E0,-1.297753239E1,9.984716415E0
6.427388727E0,-3.602230787E0,-1.367821693E1,1.163453865E1
6.437387793E0,-1.763442993E0,-1.348521900E1,9.776275635E0
6.447387126E0,-3.295098782E0,-1.239004898E1,7.006595135E0
6.457386192E0,-3.786232471E0,-1.065702534E1,5.336400986E0
6.467386192E0,-5.535791397E0,-8.984207153E0,5.085783005E0
6.477386158E0,-5.552955627E0,-7.297868729E0,7.595289707E0
6.487386191E0,-6.039220333E0,-6.049677849E0,9.084610939E0
6.497386224E0,-7.589977264E0,-6.212728977E0,9.879076958E0
6.507386224E0,-9.707386971E0,-6.191437721E0,9.535219193E0
6.517385290E0,-1.003975868E1,-5.793724060E0,7.647334099E0
6.527385290E0,-8.616878510E0,-5.429145813E0,8.031641006E0
6.537385290E0,-7.729186058E0,-4.451975822E0,7.956335068E0
6.547385256E0,-8.224778175E0,-3.531340361E0,8.161192894E0
6.557385256E0,-7.769874573E0,-2.622292519E0,8.238927841E0
6.567385256E0,-7.979679585E0,-1.999228716E0,8.158727646E0
6.577385256E0,-7.993785381E0,-1.989338875E0,8.140747070E0
6.587385222E0,-8.006136894E0,-9.655592442E-1,7.148565292E0
6.597385255E0,-7.747279644E0,-9.411563873E-1,6.816455841E0
6.607385288E0,-7.058910847E0,-1.190670013E0,6.859223843E0
6.617385288E0,-6.768914223E0,-1.569828510E0,5.913519859E0
6.627385288E0,-6.808496475E0,-1.232124805E0,5.568791389E0
6.637385254E0,-6.781766415E0,-6.514465809E-1,5.934563637E0
6.647385287E0,-6.810560226E0,-2.322509289E-1,5.944475174E0
6.657385287E0,-6.812033176E0,-1.601171494E-2,6.038255692E0
6.667385287E0,-6.897680759E0,4.977416992E-2,6.055681229E0
6.677385287E0,-7.511832237E0,-8.290410042E-1,5.759204388E0
6.687385287E0,-8.141156197E0,-2.063820601E0,5.007042408E0
6.697385253E0,-8.515934944E0,-4.133666039E0,4.548569202E0
6.707385286E0,-9.152938843E0,-5.326065063E0,5.061701775E0
6.717385319E0,-9.285072327E0,-6.244996548E0,4.488988400E0
6.727385319E0,-1.041489220E1,-7.326540947E0,4.111582756E0
6.737386219E0,-1.131734085E1,-8.558155060E0,4.289279461E0
6.747386885E0,-1.175389671E1,-9.777219772E0,5.493354797E0
6.757387851E0,-1.034084129E1,-1.017213440E1,7.046639919E0
6.767312073E0,-1.093037605E1,-1.121503639E1,8.892936707E0
6.777312073E0,-1.124100304E1,-1.168455887E1,7.637375832E0
6.787312039E0,-1.188384056E1,-1.190502167E1,3.707861662E0
6.797312039E0,-1.263462162E1,-1.199892044E1,1.471338749E0
6.807312072E0,-1.360829639E1,-1.168418694E1,1.601861000E0
6.817313005E0,-1.450731850E1,-9.997691154E0,1.571746349E0
6.827313005E0,-1.270716953E1,-7.637568474E0,3.363150835E0
6.837312971E0,-8.846848488E0,-5.809472084E0,7.850861073E0
6.847312971E0,-5.926712990E0,-6.193067551E0,1.158338356E1
6.857312971E0,-6.682542801E0,-8.636788368E0,1.205082130E1
6.867313004E0,-6.211317062E0,-1.002393532E1,1.180999184E1
6.877313004E0,-3.298778534E0,-1.081624794E1,1.181098938E1
6.887313004E0,-1.347324371E0,-1.120795536E1,8.981646538E0
6.897312970E0,-3.759820938E0,-1.045385933E1,5.995633125E0
6.907312970E0,-6.262449265E0,-9.516801834E0,5.913152218E0
6.917313003E0,-9.329596519E0,-8.560360909E0,7.755905628E0
6.927313003E0,-1.017804146E1,-8.045702934E0,9.121209145E0
6.937313003E0,-9.278279305E0,-6.711913109E0,9.175350189E0
6.947312969E0,-9.206858635E0,-6.381207466E0,9.148075104E0
6.957313002E0,-9.638652802E0,-6.199662209E0,8.264510155E0
6.967313035E0,-1.025899029E1,-6.668176651E0,7.591300964E0
6.977313035E0,-1.019146347E1,-7.505612850E0,8.177083969E0
6.987313035E0,-1.102501488E1,-8.290966034E0,8.611288071E0
6.997313035E0,-1.113405991E1,-7.495068073E0,9.083209991E0
7.007313001E0,-9.212767601E0,-5.595307350E0,8.707757950E0
7.017313001E0,-8.311337471E0,-4.309040546E0,8.300681114E0
7.027313034E0,-7.754076958E0,-3.607539654E0,7.852128029E0
7.037313034E0,-7.882423878E0,-3.075313568E0,6.388803005E0
7.047313034E0,-8.773224831E0,-2.968680859E0,5.118230343E0
7.057313000E0,-9.849901199E0,-2.849752188E0,4.750264168E0
7.067313033E0,-1.028931046E1,-2.110202551E0,5.193537235E0
7.077313066E0,-9.176054001E0,-1.288290501E0,5.905069828E0
7.087313066E0,-8.202383995E0,-8.509924412E-1,5.691851139E0
7.097313032E0,-7.474052906E0,-4.172704220E-1,5.586443424E0
7.107312998E0,-7.487281799E0,-1.472334862E-1,5.428302288E0
7.117313031E0,-7.444478512E0,-2.498733997E-1,5.582319736E0
7.127313031E0,-6.940922737E0,-7.223606110E-1,6.149582863E0
7.137313031E0,-9.280886650E0,-2.043435574E-1,5.022296429E0
7.147313031E0,-8.410219193E0,-1.694929838E0,6.891976833E0
7.157313064E0,-9.379762650E0,-1.750591040E0,6.022146225E0
7.167313064E0,-9.010056496E0,-2.738072634E0,6.985030174E0
7.177313064E0,-9.133883476E0,-3.919504404E0,6.640706062E0
7.187313064E0,-1.000726128E1,-4.855578423E0,6.314466476E0
7.197313064E0,-1.082130241E1,-5.908302784E0,5.791274548E0
7.207313030E0,-1.148663139E1,-6.955746651E0,5.384823322E0
7.217312996E0,-1.208266640E1,-7.534539700E0,4.773403645E0
7.227313029E0,-1.281347084E1,-8.318346977E0,5.028640270E0
7.237313029E0,-1.265060616E1,-9.024731636E0,5.281779766E0
7.247313029E0,-1.147860336E1,-9.152543068E0,5.384279728E0
7.257312995E0,-1.119324112E1,-9.794507027E0,5.764525414E0
7.267312995E0,-1.116997528E1,-1.060752678E1,4.881569386E0
7.277313028E0,-1.330992126E1,-1.039402962E1,4.297937393E0
7.287313028E0,-1.408361626E1,-9.679876328E0,3.750124216E0
7.297313028E0,-1.304204369E1,-9.717623711E0,3.500174522E0
7.307313028E0,-1.111295986E1,-9.139154434E0,2.653092861E0
7.317312994E0,-1.083667183E1,-8.500317574E0,2.350586176E0
7.327312960E0,-9.219308853E0,-6.667710304E0,5.561329842E0
7.337312993E0,-7.622539520E0,-7.056439400E0,1.012578583E1
7.347312993E0,-7.188892365E0,-5.721208572E0,1.357196426E1
7.357312993E0,-4.073101997E0,-8.179159164E0,1.517618179E1
7.367312959E0,-6.009619713E0,-1.089967060E1,1.505210686E1
7.377312959E0,-1.195875549E1,-9.709751129E0,1.620439148E1
7.387312992E0,-1.434579849E1,-9.732831955E0,1.543250465E1
7.397312992E0,-8.087117195E0,-1.282076740E1,1.025242710E1
7.407312992E0,-6.096193314E0,-1.451517010E1,9.103645325E0
7.417312958E0,-4.518586636E0,-1.557059288E1,8.714201927E0
7.427312991E0,-4.863474846E0,-1.587352943E1,6.357902050E0
7.437312291E0,-5.354121208E0,-1.383405304E1,6.578860283E0
7.447311591E0,-6.586296082E0,-9.445738792E0,5.627244949E0
7.457310624E0,-6.163614273E0,-7.370226860E0,5.685946465E0
7.467310590E0,-5.952708721E0,-7.164882660E0,5.435770988E0
7.477310590E0,-8.119138718E0,-7.257355213E0,5.454159737E0
7.487310623E0,-8.896860123E0,-6.714850426E0,7.101769924E0
7.497310656E0,-9.350351334E0,-4.559082985E0,8.362867355E0
7.507310656E0,-9.245488167E0,-2.515931606E0,8.865336418E0
7.517310556E0,-8.960609436E0,-2.015033484E0,9.028614044E0
7.527310522E0,-8.849455833E0,-1.630280495E0,8.978962898E0
7.537310555E0,-8.812157631E0,-9.810090065E-1,8.473234177E0
7.547310555E0,-8.419063568E0,-2.228550911E-1,8.901152611E0
7.557310555E0,-7.731198311E0,6.130669117E-1,8.855201721E0
7.567310521E0,-7.495918751E0,1.087722063E0,8.810607910E0
7.577310487E0,-7.518620014E0,1.109678984E0,8.780034065E0
7.587310520E0,-7.221961021E0,3.569779396E-1,7.965044975E0
7.597310520E0,-6.966602802E0,-5.726728439E-1,6.881656170E0
7.607310520E0,-6.936963558E0,-8.654284477E-1,6.259529114E0
7.617310520E0,-6.920347214E0,-6.354176998E-1,5.812853336E0
7.627310520E0,-6.565869331E0,-6.328160763E-1,5.564347267E0
7.637310486E0,-6.378233910E0,-1.043932915E0,5.697221756E0
7.647310519E0,-6.508707047E0,-1.657907963E0,5.635696411E0
7.657310519E0,-6.655129433E0,-2.410041094E0,5.331186295E0
7.667310519E0,-7.249873638E0,-3.284610033E0,4.871286392E0
7.677310485E0,-7.795206547E0,-3.998083353E0,4.546255112E0
7.687310485E0,-7.896056652E0,-4.584758759E0,4.889218330E0
7.697310518E0,-7.692103386E0,-5.228438377E0,5.416450977E0
7.707310518E0,-7.635645866E0,-5.535289764E0,5.817389965E0
7.717310518E0,-7.870469570E0,-6.206104279E0,5.801551819E0
7.727310484E0,-8.396850586E0,-6.736694336E0,5.495789528E0
7.737311217E0,-1.112139225E1,-8.484936714E0,6.939607620E0
7.747311950E0,-1.299509048E1,-1.018884850E1,7.152884483E0
7.757312883E0,-1.214125061E1,-1.116325760E1,6.087338448E0
7.767312883E0,-1.293093109E1,-1.343796349E1,5.549962997E0
7.777312883E0,-1.529482746E1,-1.503050518E1,3.756199598E0
7.787312849E0,-1.656866837E1,-1.417074013E1,9.313583374E-1
7.797312849E0,-1.593934631E1,-1.129013062E1,-1.348953247E-1
7.807312882E0,-1.373435879E1,-8.041839600E0,2.521365643E0
7.817312982E0,-1.108951855E1,-5.463443279E0,6.457338333E0
7.827312982E0,-8.022470474E0,-5.152716160E0,9.369461060E0
7.837312948E0,-5.983219147E0,-6.899244308E0,1.055694962E1
7.847312981E0,-4.487232208E0,-8.486913681E0,1.128356838E1
7.857313014E0,-2.058421612E0,-9.505156517E0,1.065447140E1
7.867313014E0,-1.772531033E0,-9.539222717E0,9.193606377E0
7.877313014E0,-3.582999229E0,-7.800464153E0,7.869750023E0
7.887312980E0,-2.887685299E0,-6.430624008E0,7.518207550E0
7.897313013E0,-4.870273590E0,-6.198327065E0,9.189245224E0
7.907313013E0,-6.530364513E0,-6.442536831E0,9.782609940E0
7.917313013E0,-7.879438400E0,-6.757675648E0,9.921550751E0
7.927313013E0,-8.957982063E0,-5.805010796E0,1.057492924E1
7.937313013E0,-1.011394691E1,-5.185508251E0,1.070452881E1
7.947312979E0,-1.099925327E1,-5.209828377E0,1.003000450E1
7.957313012E0,-1.169677544E1,-5.740284920E0,1.018314457E1
7.967313045E0,-1.167952728E1,-5.890391350E0,1.047411728E1
7.977313045E0,-1.096175766E1,-5.742799759E0,1.061178970E1
7.987313011E0,-1.009070873E1,-5.164514065E0,1.038364983E1
7.997312977E0,-1.003013134E1,-5.065121174E0,1.039289188E1
8.007313010E0,-9.460994720E0,-3.604445934E0,8.257767677E0
8.017313010E0,-9.467162132E0,-2.655949116E0,7.205761909E0
8.027313010E0,-9.356730461E0,-1.966127872E0,6.164007187E0
8.037312976E0,-9.324019432E0,-1.924310684E0,6.174721718E0
8.047312976E0,-8.418558121E0,-8.088932037E-1,6.519893169E0
8.057313009E0,-7.861357212E0,-4.610571861E-1,6.467436790E0
8.067313009E0,-7.454967976E0,-1.569709778E-1,6.716045380E0
8.077313009E0,-7.319417953E0,6.605625153E-2,6.541479111E0
8.087313009E0,-7.338418484E0,1.341233253E-1,6.544845104E0
8.097312975E0,-7.620103836E0,-2.396373749E-1,6.368289948E0
8.107312941E0,-7.990792751E0,-6.222910881E-1,5.829612255E0
8.117312974E0,-8.723004341E0,-7.330465317E-1,6.548276424E0
8.127312974E0,-8.801782608E0,-9.420089722E-1,6.774538517E0
8.137312974E0,-8.552850723E0,-1.456896305E0,6.567190170E0
8.147312940E0,-8.290675163E0,-1.575196743E0,6.726089954E0
8.157312940E0,-8.345442772E0,-1.794825554E0,7.023596764E0
8.167312973E0,-8.782252312E0,-2.180768490E0,7.123665333E0
8.177312973E0,-9.357363701E0,-2.977035046E0,7.111043930E0
8.187312973E0,-1.035539055E1,-4.001777172E0,7.265604973E0
8.197312939E0,-1.129351425E1,-5.170428276E0,7.290474415E0
8.207312972E0,-1.195006371E1,-6.494014740E0,7.255533218E0
8.217313005E0,-1.255135727E1,-7.680201530E0,7.056229591E0
8.227313005E0,-1.238880157E1,-8.429952621E0,6.801867008E0
8.237313005E0,-1.163061333E1,-8.538101196E0,6.563302040E0
8.247313005E0,-1.114785957E1,-8.409388542E0,6.955257893E0
8.257312971E0,-1.263964653E1,-8.463418961E0,7.684571743E0
8.267312971E0,-1.438668442E1,-8.341936111E0,7.259279728E0
8.277313004E0,-1.457554817E1,-7.766747952E0,6.304942608E0
8.287313004E0,-1.338360023E1,-7.041072369E0,5.471410275E0
8.297313004E0,-1.334028721E1,-7.005390644E0,5.490598679E0
8.307312970E0,-9.256508827E0,-7.003227711E0,7.925146580E0
8.317313003E0,-7.097764969E0,-8.165623665E0,1.185233688E1
8.327313036E0,-6.862667561E0,-9.053030014E0,1.621334267E1
8.337313036E0,-6.857721329E0,-9.038675308E0,1.620859909E1
8.347313002E0,-8.748657227E0,-8.675660133E0,1.377486801E1
8.357312968E0,-9.184971809E0,-8.289895058E0,1.122058201E1
8.367313001E0,-8.406028748E0,-7.754878998E0,1.080619431E1
8.377313001E0,-8.262243271E0,-7.338823795E0,1.240447998E1
8.387313001E0,-7.804231644E0,-7.062421799E0,1.348020935E1
8.397313001E0,-7.118152618E0,-7.004338741E0,1.316721535E1
8.407313034E0,-6.317119598E0,-7.595391273E0,1.211763573E1
8.417313034E0,-5.456938267E0,-8.077556610E0,1.128976059E1
8.427313034E0,-5.020452499E0,-8.808322906E0,1.054116726E1
8.437313034E0,-4.401479721E0,-9.334038734E0,9.409602165E0
8.447312334E0,-4.397639275E0,-9.057889938E0,8.414410591E0
8.457311600E0,-4.488881588E0,-8.413288116E0,7.845113754E0
8.467311566E0,-5.287233353E0,-8.465556145E0,6.792821407E0
8.477311599E0,-6.661235809E0,-7.589776039E0,5.549492359E0
8.487311599E0,-7.150203228E0,-5.992306709E0,5.599655628E0
8.497311599E0,-7.402630806E0,-4.511222839E0,6.508588314E0
8.507311565E0,-7.557714462E0,-3.351991177E0,7.927115440E0
8.517311565E0,-7.764943123E0,-2.331067085E0,8.196742058E0
8.527311598E0,-8.403209686E0,-1.348484039E0,9.209136963E0
8.537311598E0,-8.551401138E0,-3.072161674E-1,9.608673096E0
8.547311598E0,-8.410873413E0,4.504563808E-1,9.846320152E0
8.557311598E0,-8.273693085E0,1.053843737E0,9.514847755E0
8.567311564E0,-8.282996178E0,1.073179960E0,9.493467331E0
8.577311530E0,-7.838739395E0,1.620249987E0,7.735930443E0
8.587311563E0,-7.616813660E0,1.862561226E0,6.909486771E0
8.597311563E0,-7.307919502E0,2.172843695E0,6.019074917E0
8.607311563E0,-6.782606125E0,2.415130615E0,5.715229988E0
8.617311529E0,-6.217943668E0,2.262956619E0,5.874536514E0
8.627311529E0,-6.219033241E0,1.841312885E0,6.195496559E0
8.637311095E0,-6.664338589E0,1.170644045E0,6.179831982E0
8.647311095E0,-7.122904301E0,2.567639351E-1,6.307131767E0
8.657311095E0,-7.513370991E0,-8.864159584E-1,6.185215950E0
8.667311061E0,-7.981940746E0,-2.215127945E0,5.425340652E0
8.677311094E0,-8.623350143E0,-3.589000702E0,5.188543320E0
8.687311094E0,-8.919656754E0,-4.963572025E0,5.033297062E0
8.697311094E0,-9.574406624E0,-6.504631042E0,4.945632458E0
8.707311060E0,-1.029053974E1,-8.207770348E0,4.851201534E0
8.717311026E0,-1.103785229E1,-1.022153854E1,5.542948723E0
8.727311059E0,-1.164973450E1,-1.220034027E1,6.752565384E0
8.737311059E0,-1.251090908E1,-1.321328354E1,6.513738632E0
8.747311759E0,-1.420156670E1,-1.318308258E1,3.764695644E0
8.757312659E0,-1.531997299E1,-1.249734116E1,1.516662121E0
8.767311959E0,-1.494880390E1,-1.168398094E1,5.126223564E-1
8.777311925E0,-1.414221191E1,-1.026575375E1,3.318896294E-1
8.787311958E0,-1.321572113E1,-7.323663235E0,1.252374649E0
8.797311958E0,-1.007621384E1,-4.397635937E0,4.090645790E0
8.807311958E0,-6.977064610E0,-3.653279781E0,8.554001808E0
8.817311924E0,-5.264117241E0,-4.453601360E0,1.313791275E1
8.827311890E0,-3.961812019E0,-6.637376785E0,1.512091637E1
8.837311923E0,-2.042730808E0,-9.574614525E0,1.479434299E1
8.847311923E0,-1.535115242E0,-1.033813667E1,1.241029739E1
8.857311923E0,-3.615344048E0,-8.776082993E0,8.823670387E0
8.867311923E0,-6.414595604E0,-8.446928024E0,5.662233829E0
8.877311923E0,-8.088891983E0,-8.459651947E0,5.162905216E0
8.887311889E0,-8.436875343E0,-8.235325813E0,7.649477005E0
8.897311922E0,-8.486236572E0,-8.336090088E0,7.649958611E0
8.907311922E0,-1.098341084E1,-6.567302704E0,9.802360535E0
8.917311922E0,-1.195067883E1,-6.199632645E0,9.729394913E0
8.927311888E0,-1.235356140E1,-6.685025215E0,9.336753845E0
8.937312354E0,-1.243397141E1,-7.332607746E0,9.529656410E0
8.947312387E0,-1.217531872E1,-7.897121429E0,9.443303108E0
8.957312387E0,-1.117677116E1,-7.427362919E0,9.138301849E0
8.967312387E0,-1.072763920E1,-6.578678131E0,8.515699387E0
8.977312353E0,-9.355093002E0,-4.864951134E0,6.912201881E0
8.987312386E0,-8.476621628E0,-3.411604881E0,5.820881844E0
8.997312419E0,-8.017023087E0,-2.495227098E0,5.152597904E0
9.007312419E0,-7.678099632E0,-1.709950924E0,4.944822788E0
9.017312419E0,-7.222314835E0,-1.083728313E0,4.685209751E0
9.027312385E0,-7.427519321E0,-6.645534039E-1,4.851138115E0
9.037312385E0,-7.519900799E0,-3.721091747E-1,5.095648766E0
9.047312418E0,-7.359833241E0,-1.029109955E-2,5.643348694E0
9.057312251E0,-6.797651768E0,4.203560352E-1,5.597410202E0
9.067312951E0,-6.693167686E0,6.665980816E-1,5.756617069E0
9.077312951E0,-6.848425865E0,7.437462807E-1,5.811012268E0
9.087312917E0,-7.092656612E0,7.349748611E-1,6.255251408E0
9.097312950E0,-6.764993668E0,7.127215862E-1,6.346692562E0
9.107312983E0,-6.765587330E0,2.333838940E-1,6.711362839E0
9.117312983E0,-6.917320251E0,-5.715775490E-1,6.687534332E0
9.127312983E0,-7.011112690E0,-1.457586288E0,6.720574379E0
9.137312949E0,-7.259831429E0,-2.291515112E0,6.583599567E0
9.147312982E0,-8.173771858E0,-3.376296759E0,6.236824989E0
9.157312982E0,-9.486553192E0,-4.858062744E0,6.260438919E0
9.167312982E0,-1.079518890E1,-6.429057598E0,6.464655399E0
9.177312982E0,-1.235697460E1,-7.657560349E0,6.699830055E0
9.187313015E0,-1.353655720E1,-8.723808289E0,6.686925888E0
9.197313015E0,-1.378106880E1,-9.642400742E0,6.244224072E0
9.207313015E0,-1.373593330E1,-1.076822090E1,6.323050499E0
9.217313015E0,-1.340026474E1,-1.099154282E1,6.417657852E0
9.227313015E0,-1.300720024E1,-1.019096470E1,6.237091541E0
9.237312981E0,-1.268992424E1,-9.160844803E0,5.756978989E0
9.247312947E0,-1.272155762E1,-8.267438889E0,5.947898388E0
9.257312980E0,-1.328246689E1,-8.189521790E0,5.801425457E0
9.267312980E0,-1.281048489E1,-8.624088287E0,5.223659992E0
9.277312980E0,-1.167618752E1,-8.486941338E0,4.832707882E0
9.287312946E0,-1.008880997E1,-8.253654480E0,4.271603584E0
9.297312946E0,-8.897642136E0,-7.919712543E0,5.832504272E0
9.307312979E0,-7.469033241E0,-7.629141331E0,9.519212723E0
9.317312979E0,-7.422006607E0,-8.081783295E0,1.310561657E1
9.327312979E0,-7.709169388E0,-7.642390728E0,1.441067505E1
9.337312979E0,-8.980030060E0,-7.820340157E0,1.461557579E1
9.347312945E0,-1.152628136E1,-7.831830502E0,1.528804016E1
9.357312911E0,-1.272689247E1,-7.188492775E0,1.542552280E1
9.367312944E0,-1.177437305E1,-6.491787434E0,1.395984459E1
9.377312944E0,-1.050470924E1,-6.235091209E0,1.189563942E1
9.387312944E0,-9.027744293E0,-6.954771042E0,1.028502560E1
9.397312910E0,-7.913755417E0,-7.784188271E0,1.021934700E1
9.407312910E0,-6.677785873E0,-7.996555805E0,9.722520828E0
9.417312943E0,-5.930167198E0,-8.076019287E0,9.431589127E0
9.427312943E0,-5.267516136E0,-8.275213242E0,8.570407867E0
9.437312243E0,-4.542061806E0,-8.250963211E0,7.974537849E0
9.447311509E0,-4.266711235E0,-8.049774170E0,7.470508575E0
9.457310842E0,-4.321412086E0,-7.814654350E0,6.813578606E0
9.467309942E0,-5.219377518E0,-7.748003960E0,6.120251179E0
9.477309942E0,-6.255074501E0,-6.947952747E0,5.189836979E0
9.487309908E0,-6.682140350E0,-5.818866253E0,5.262038231E0
9.497309874E0,-6.888930321E0,-4.418867588E0,6.508437634E0
9.507309907E0,-7.144679070E0,-3.415384054E0,7.794666290E0
9.517309473E0,-8.077107430E0,-2.795735359E0,8.446357727E0
9.527309473E0,-8.618780136E0,-2.117369890E0,8.476476669E0
9.537309473E0,-8.955603600E0,-1.644666910E0,8.672989845E0
9.547309473E0,-9.301412582E0,-1.170233965E0,8.437448502E0
9.557309439E0,-9.320665359E0,-8.066766262E-1,8.004459381E0
9.567309472E0,-8.984026909E0,-5.492982864E-1,7.941557884E0
9.577309505E0,-9.010327339E0,-5.199398994E-1,7.890376091E0
9.587309505E0,-8.383523941E0,3.588807583E-1,6.617833614E0
9.597309471E0,-7.723034382E0,9.209430218E-1,6.273520470E0
9.607309437E0,-7.378199577E0,1.361570597E0,6.023993492E0
9.617309470E0,-7.180270195E0,1.710800171E0,6.026259422E0
9.627309470E0,-6.918442726E0,1.748550653E0,6.192861557E0
9.637309470E0,-7.020773411E0,1.438488722E0,6.392261982E0
9.647309470E0,-7.143754959E0,8.991329670E-1,5.753622055E0
9.657309470E0,-7.642189026E0,-7.852935791E-2,4.755846024E0
9.667309436E0,-7.931991100E0,-9.972329140E-1,4.037846565E0
9.677309469E0,-8.600639343E0,-2.826894760E0,2.944274187E0
9.687309469E0,-9.520461082E0,-4.955034733E0,2.410602808E0
9.697309469E0,-9.936095238E0,-7.491051197E0,2.785670519E0
9.707309435E0,-9.848472595E0,-1.028256321E1,4.603208065E0
9.717309401E0,-1.033595181E1,-1.282913589E1,6.974209309E0
9.727309434E0,-1.146387672E1,-1.444216156E1,7.302123547E0
9.737310134E0,-1.291523838E1,-1.503649521E1,3.910183907E0
9.747310834E0,-1.417715549E1,-1.461247444E1,5.510931015E-1
9.757311500E0,-1.379767513E1,-1.328356075E1,1.594114304E-2
9.767312433E0,-1.361984634E1,-1.121592903E1,-1.416730881E-2
9.777312466E0,-1.317366982E1,-8.168124199E0,-4.076428413E-1
9.787312466E0,-1.131581211E1,-5.106014252E0,8.222234249E-1
9.797312466E0,-8.442030907E0,-3.854004383E0,4.324882984E0
9.807312432E0,-6.446511269E0,-3.864798069E0,9.339638710E0
9.817312865E0,-5.182561398E0,-4.687223434E0,1.333976078E1
9.827312865E0,-2.121134758E0,-7.058764458E0,1.361938190E1
9.837312898E0,2.937979698E-1,-8.778335571E0,1.369256210E1
9.847312898E0,-4.956073761E-1,-1.021066856E1,1.252795696E1
9.857312198E0,-2.856944561E0,-1.114649963E1,1.039396477E1
9.867312164E0,-6.323470116E0,-1.120609283E1,7.707676888E0
9.877312164E0,-8.058062553E0,-9.755336761E0,6.994117260E0
9.887312197E0,-8.331138611E0,-7.076951981E0,8.368147850E0
9.897312197E0,-9.087066650E0,-5.177468300E0,8.644559860E0
9.907312197E0,-1.060016632E1,-4.855814934E0,8.195695877E0
9.917312163E0,-1.190338516E1,-5.477447510E0,8.029676437E0
9.927312196E0,-1.267866993E1,-6.369714260E0,8.569349289E0
9.937312196E0,-1.258084202E1,-7.205303192E0,9.102695465E0
9.947312196E0,-1.204183483E1,-7.758380890E0,9.599123955E0
9.957312196E0,-1.098902035E1,-7.238584518E0,9.432731628E0
9.967312196E0,-9.813985825E0,-6.141944885E0,8.696613312E0
9.977312162E0,-9.315807343E0,-4.498325825E0,7.513303757E0
9.987312195E0,-8.716812134E0,-2.884823322E0,5.689226627E0
9.997311828E0,-8.204798698E0,-1.764207363E0,4.524521828E0
1.000731183E1,-7.693295002E0,-1.331083298E0,4.157185078E0
1.001731183E1,-7.570824623E0,-1.109089136E0,4.040028572E0
1.002731179E1,-7.469183445E0,-8.616635799E-1,4.214383602E0
1.003731183E1,-7.307188034E0,-5.860199928E-1,4.519042492E0
1.004731183E1,-7.374257088E0,-4.963467121E-1,5.166876793E0
1.005731183E1,-7.755769253E0,-6.196773052E-1,5.784607887E0
1.006731179E1,-8.404438972E0,-5.681960583E-1,6.430934429E0
1.007731176E1,-8.734683990E0,-3.516345024E-1,6.731780529E0
1.008731179E1,-8.771155357E0,-2.645750046E-1,6.778002739E0
1.009731179E1,-8.779438019E0,-3.853271008E-1,6.553010464E0
1.010731179E1,-8.200314522E0,-5.383882523E-1,6.875681877E0
1.011731179E1,-7.609286785E0,-6.071429253E-1,7.478895664E0
1.012731179E1,-7.310701847E0,-1.154430151E0,7.353655815E0
1.013731176E1,-7.640166759E0,-1.854094505E0,7.027007103E0
1.014731179E1,-8.362025261E0,-2.883667946E0,6.570166588E0
1.015731249E1,-9.443443298E0,-4.431226730E0,6.150661469E0
1.016731249E1,-1.062336540E1,-6.021378994E0,6.134029388E0
1.017731246E1,-1.175918865E1,-7.899885178E0,5.950104713E0
1.018731246E1,-1.238488197E1,-9.383259773E0,5.619305611E0
1.019731249E1,-1.275467873E1,-1.023326874E1,5.273171902E0
1.020731249E1,-1.303397560E1,-1.031148434E1,5.691111565E0
1.021731249E1,-1.258357048E1,-9.381779671E0,6.716145992E0
1.022731246E1,-1.299746132E1,-8.419018745E0,7.104922771E0
1.023731249E1,-1.314582825E1,-7.223402977E0,7.025437832E0
1.024731252E1,-1.303824615E1,-6.404224396E0,6.266138554E0
1.025731252E1,-1.252240467E1,-6.276133060E0,4.499527454E0
1.026731252E1,-1.141910362E1,-7.379698277E0,2.476760149E0
1.027731252E1,-1.024947834E1,-8.231375694E0,2.474818945E0
1.028731249E1,-8.188402176E0,-8.074993134E0,6.122042656E0
1.029731289E1,-5.985026360E0,-7.655459881E0,1.280231285E1
1.030731292E1,-5.726724625E0,-7.833265781E0,1.668130112E1
1.031731292E1,-6.197328091E0,-7.354504108E0,1.682466125E1
1.032731222E1,-9.235358238E0,-8.019104958E0,1.612064552E1
1.033731219E1,-1.192384529E1,-8.048383713E0,1.366708183E1
1.034731222E1,-1.034531403E1,-6.432887077E0,1.100210571E1
1.035731225E1,-8.575029373E0,-5.736953735E0,1.234478188E1
1.036731225E1,-7.314485550E0,-6.500508785E0,1.295028687E1
1.037731225E1,-6.311950207E0,-7.696623325E0,1.247691441E1
1.038731222E1,-5.373619080E0,-8.565357208E0,1.227074814E1
1.039731225E1,-5.908823490E0,-1.011791992E1,1.091095352E1
1.040731225E1,-5.852861404E0,-1.135607243E1,8.782837868E0
1.041731225E1,-6.224936008E0,-1.238770485E1,7.840167999E0
1.042731225E1,-7.017291069E0,-1.176427460E1,7.468735695E0
1.043731225E1,-6.961432934E0,-1.013906670E1,7.106647015E0
1.044731228E1,-6.942551136E0,-8.012360573E0,7.647387505E0
1.045731162E1,-8.091409683E0,-6.362519741E0,6.528535843E0
1.046731072E1,-8.072321892E0,-4.439340115E0,5.647994518E0
1.047730998E1,-8.127746582E0,-3.218305588E0,6.080375671E0
1.048730995E1,-8.600662231E0,-2.599581718E0,6.652447701E0
1.049730992E1,-8.542558670E0,-2.066653252E0,6.384812355E0
1.050730995E1,-8.801159859E0,-1.560651779E0,6.071746349E0
1.051730995E1,-9.036850929E0,-9.005956650E-1,6.510371685E0
1.052730995E1,-9.153858185E0,-2.718753815E-1,7.101139069E0
1.053730992E1,-8.667729378E0,6.776947975E-1,7.360643864E0
1.054730922E1,-8.062967300E0,1.709408760E0,7.510797501E0
1.055730925E1,-7.229173660E0,2.751311302E0,7.283829689E0
1.056730925E1,-7.283741951E0,2.732363701E0,7.229775429E0
1.057730925E1,-6.977882862E0,1.845131636E0,8.463615417E0
1.058730925E1,-5.420593739E0,4.070112705E0,7.202354431E0
1.059730921E1,-6.096717834E0,2.964271069E0,5.674254417E0
1.060730918E1,-6.098509789E0,1.389623642E0,4.968967915E0
1.061730921E1,-6.816185951E0,-3.850398064E-1,4.775691032E0
1.062730991E1,-7.741928101E0,-2.052249432E0,5.312009335E0
1.063730991E1,-8.098875999E0,-3.344104290E0,4.755408764E0
1.064730988E1,-8.558258057E0,-3.697563648E0,4.097150803E0
1.065730988E1,-8.336997032E0,-4.404463768E0,4.152216911E0
1.066730991E1,-8.828928947E0,-5.833258152E0,3.276457787E0
1.067730991E1,-9.894454002E0,-7.079864502E0,2.389754772E0
1.068730991E1,-1.081423950E1,-8.474340439E0,3.070476770E0
1.069730988E1,-1.109019661E1,-9.621940613E0,5.498842716E0
1.070730991E1,-1.162758636E1,-1.051515961E1,6.756791592E0
1.071730994E1,-1.262765503E1,-1.159936905E1,4.666985512E0
1.072730994E1,-1.326443672E1,-1.234064865E1,1.118978500E0
1.073730994E1,-1.370002556E1,-1.160565472E1,-2.390422821E-1
1.074730988E1,-1.360043526E1,-1.047516346E1,-4.045429230E-1
1.075731054E1,-1.383791733E1,-8.529398918E0,3.585033417E-1
1.076731148E1,-1.225040054E1,-6.711964607E0,2.919465303E0
1.077731224E1,-9.594146729E0,-5.721525192E0,6.150156498E0
1.078731224E1,-6.621893883E0,-5.946870327E0,9.400885582E0
1.079731224E1,-5.064215183E0,-6.684925556E0,1.183534050E1
1.080731221E1,-2.942669392E0,-7.644259930E0,1.261364460E1
1.081731224E1,-1.980295181E-1,-8.864723206E0,1.227349091E1
1.082731227E1,-1.576232433E0,-8.504354477E0,1.161151886E1
1.083731227E1,-4.676512718E0,-8.334840775E0,9.133190155E0
1.084731294E1,-8.153956413E0,-9.261035919E0,7.530891895E0
1.085731291E1,-9.731723785E0,-9.771650314E0,6.052275181E0
1.086731294E1,-1.025702953E1,-8.679941177E0,6.453382015E0
1.087731294E1,-1.048291492E1,-6.616159439E0,7.965612888E0
1.088731294E1,-1.159485817E1,-5.686669350E0,9.135450363E0
1.089731294E1,-1.228058434E1,-6.006989956E0,8.238127708E0
1.090731297E1,-1.215516186E1,-6.776874542E0,7.758614540E0
1.091731297E1,-1.158172989E1,-7.814245224E0,7.560697556E0
1.092731297E1,-1.097744274E1,-9.133306503E0,6.843981266E0
1.093731297E1,-1.001893616E1,-9.579871178E0,6.637609482E0
1.094731297E1,-8.797130585E0,-8.605626106E0,6.043773174E0
1.095731294E1,-8.116423607E0,-6.627702713E0,5.073761463E0
1.096731290E1,-7.757823467E0,-5.087287903E0,4.842232227E0
1.097731294E1,-7.881730080E0,-3.713847637E0,5.275116444E0
1.098731294E1,-8.295692444E0,-2.091687202E0,6.897984505E0
1.099731294E1,-8.518445015E0,-2.953151226E0,7.173684120E0
1.100731290E1,-8.079905510E0,-3.115153074E0,5.707293034E0
1.101731220E1,-8.296713829E0,-2.667718410E0,4.729971886E0
1.102731224E1,-7.954900742E0,-2.196566343E0,3.338053226E0
1.103731224E1,-7.338213444E0,-2.187358856E0,3.843733549E0
1.104731224E1,-7.442264557E0,-2.093426943E0,5.123259544E0
1.105731224E1,-7.591794014E0,-2.025267124E0,4.470762253E0
1.106731224E1,-7.584235191E0,-1.420158386E0,4.280481339E0
1.107731224E1,-8.068251610E0,-1.464206457E0,4.309473991E0
1.108731224E1,-8.980289459E0,-7.300024033E-1,4.052034378E0
1.109731224E1,-9.286327362E0,-1.180549622E0,5.578239441E0
1.110731224E1,-8.941712379E0,-1.457042694E0,6.584262371E0
1.111731220E1,-9.409816742E0,-1.431251049E0,6.817915916E0
1.112731220E1,-1.004483223E1,-1.175632477E0,6.226179123E0
1.113731224E1,-1.146358585E1,-1.329105854E0,4.804723263E0
1.114731224E1,-1.320180988E1,-1.318655491E0,4.762150764E0
1.115731224E1,-1.451048088E1,-5.540280342E-1,3.452692509E0
1.116731220E1,-1.558908844E1,-1.222342968E0,3.070091248E0
1.117731223E1,-1.631589127E1,-2.807651997E0,4.889088154E0
1.118731223E1,-1.611061859E1,-4.903500080E0,7.277745247E0
1.119731223E1,-1.428633690E1,-7.659588814E0,5.898582935E0
1.120731220E1,-1.347926903E1,-9.099689484E0,3.344866037E0
1.121731217E1,-1.382407188E1,-9.111132622E0,4.546257973E0
1.122731217E1,-1.394408607E1,-9.013679504E0,5.712321758E0
1.123731220E1,-1.417455864E1,-7.960581779E0,5.957962513E0
1.124731223E1,-1.392698860E1,-7.325258255E0,4.634778023E0
1.125731223E1,-1.303285885E1,-7.221341610E0,2.353564978E0
1.126731223E1,-1.154422760E1,-6.957862854E0,1.721556187E0
1.127731220E1,-9.486319542E0,-6.672163010E0,3.260016441E0
1.128731223E1,-7.688290119E0,-7.700136185E0,8.209306717E0
1.129731223E1,-6.603533268E0,-7.744803429E0,1.450682449E1
1.130731223E1,-6.536335468E0,-7.874088287E0,1.826636124E1
1.131731290E1,-8.604695320E0,-8.298979759E0,1.940720940E1
1.132731286E1,-1.111901760E1,-8.741580963E0,1.819109344E1
1.133731290E1,-1.145495987E1,-9.244466782E0,1.359435368E1
1.134731290E1,-1.061356926E1,-9.908088684E0,9.980974197E0
1.135731290E1,-9.759824753E0,-9.822561264E0,8.245449066E0
1.136731286E1,-8.041492462E0,-1.020664978E1,8.317563057E0
1.137731283E1,-7.091590405E0,-9.787734985E0,9.819241524E0
1.138731283E1,-5.692584038E0,-9.155599594E0,9.852334976E0
1.139731286E1,-5.620125294E0,-8.287363052E0,9.193112373E0
1.140731286E1,-5.073427200E0,-7.297078133E0,8.666976929E0
1.141731286E1,-4.351613998E0,-6.345634460E0,7.978030205E0
1.142731283E1,-4.454267502E0,-5.806138515E0,6.955902576E0
1.143731213E1,-4.503837109E0,-5.128990650E0,6.079883575E0
1.144731146E1,-5.982927322E0,-4.920621395E0,6.189848423E0
1.145731136E1,-7.900142670E0,-4.091852188E0,5.447024345E0
1.146731066E1,-8.255723000E0,-3.110467911E0,4.682859898E0
1.147730969E1,-8.864983559E0,-2.679713726E0,4.852506638E0
1.148730973E1,-9.356668472E0,-2.340630531E0,5.068614006E0
1.149730976E1,-1.038045406E1,-1.835174561E0,5.608301640E0
1.150730976E1,-1.159684849E1,-1.427017689E0,6.166753292E0
1.151730976E1,-1.131323528E1,-1.235055923E-1,6.239894867E0
1.152730906E1,-1.076087189E1,7.749667168E-1,6.059039593E0
1.153730906E1,-1.043501472E1,1.191408634E0,6.279389381E0
1.154730973E1,-1.008379841E1,1.707014084E0,6.585119724E0
1.155730973E1,-8.892925262E0,2.355093479E0,6.484159946E0
1.156730973E1,-7.974805832E0,2.811321735E0,6.462100029E0
1.157730973E1,-7.091870308E0,2.619508505E0,5.232166290E0
1.158730969E1,-6.687645435E0,2.539756060E0,4.735527039E0
1.159730972E1,-6.097701073E0,2.264398813E0,4.464575291E0
1.160730976E1,-7.216540337E0,1.369638920E0,4.857844830E0
1.161730976E1,-8.072427750E0,1.059407711E0,5.552079678E0
1.162730976E1,-8.465492249E0,1.096194267E0,5.450927734E0
1.163730972E1,-8.557403564E0,9.022889137E-1,4.146245956E0
1.164730976E1,-8.554386139E0,1.828160286E-1,2.625921965E0
1.165730976E1,-9.003157616E0,-1.015485764E0,1.285388470E0
1.166730976E1,-9.357852936E0,-2.495516777E0,2.351889610E-1
1.167730976E1,-1.002467918E1,-3.934705734E0,-2.648272514E-1
1.168730979E1,-1.063499260E1,-5.843643188E0,2.936220169E-1
1.169730979E1,-1.243214703E1,-7.387675285E0,2.828382254E0
1.170730979E1,-1.367630005E1,-9.283399582E0,4.971647739E0
1.171730979E1,-1.453631306E1,-1.085149860E1,5.424858570E0
1.172730979E1,-1.525795174E1,-1.085574245E1,1.004283428E0
1.173731046E1,-1.598278999E1,-1.032405567E1,-3.707073212E0
1.174731112E1,-1.689395142E1,-9.646045685E0,-5.913069725E0
1.175731125E1,-1.636245537E1,-7.767295361E0,-5.075212955E0
1.176731195E1,-1.421038342E1,-6.294618130E0,6.259107590E-1
1.177731289E1,-1.113391209E1,-4.642146587E0,5.552195549E0
1.178731285E1,-8.583759308E0,-5.204921722E0,8.970352173E0
1.179731285E1,-7.648672104E0,-6.955467701E0,9.876326561E0
1.180731289E1,-6.756885052E0,-9.959620476E0,9.939033508E0
1.181731289E1,-4.899446964E0,-1.007350826E1,1.035356712E1
1.182731359E1,-4.729202271E0,-7.660540104E0,8.759830475E0
1.183731355E1,-5.579658985E0,-6.062957287E0,7.376626015E0
1.184731285E1,-6.888474941E0,-5.880518913E0,6.582425117E0
1.185731285E1,-9.536401749E0,-5.768136978E0,5.142389774E0
1.186731288E1,-1.101519012E1,-5.754665375E0,3.804025650E0
1.187731288E1,-1.213782120E1,-4.699941158E0,2.214199066E0
1.188731289E1,-1.300181293E1,-3.784290314E0,2.576693058E0
1.189731285E1,-1.313829994E1,-3.479347229E0,4.962470055E0
1.190731285E1,-1.290580654E1,-4.168152332E0,6.119967461E0
1.191731288E1,-1.236044502E1,-5.233682632E0,6.916576385E0
1.192731288E1,-1.257033920E1,-5.710957527E0,7.391239166E0
1.193731288E1,-1.268395424E1,-4.938882828E0,7.296720505E0
1.194731285E1,-1.163570786E1,-4.376168728E0,6.906485558E0
1.195731288E1,-9.977046967E0,-3.172622681E0,6.146125317E0
1.196731292E1,-8.933324814E0,-1.701807499E0,5.889330387E0
1.197731292E1,-7.918430805E0,-3.982977867E-1,6.123692513E0
1.198731288E1,-6.944355488E0,4.332838058E-1,6.129847527E0
1.199731285E1,-6.339865685E0,9.601578712E-1,6.211278915E0
1.200731288E1,-6.219567776E0,1.258781433E0,5.727777481E0
1.201731288E1,-6.566334248E0,1.344448566E0,4.758416176E0
1.202731288E1,-7.722196579E0,1.073209763E0,4.201017857E0
1.203731288E1,-7.695415020E0,1.093420029E0,4.214975834E0
1.204731288E1,-8.699122429E0,1.050870419E0,4.351184845E0
1.205731285E1,-8.902025223E0,1.259384155E0,4.706423759E0
1.206731288E1,-9.080236435E0,1.756030083E0,4.475547791E0
1.207731291E1,-9.042064667E0,1.768793583E0,4.512917995E0
1.208731291E1,-8.409317017E0,1.844700813E0,6.630034447E0
1.209731288E1,-8.186478615E0,1.726053715E0,7.158357620E0
1.210731285E1,-8.089843750E0,1.193853855E0,6.853161335E0
1.211731288E1,-8.696014404E0,3.691644669E-1,6.840065956E0
1.212731288E1,-9.249414444E0,-4.535217285E-1,5.791112900E0
1.213731288E1,-1.151926708E1,-1.639373302E0,4.379507065E0
1.214731288E1,-1.342422104E1,-2.739236832E0,4.880198479E0
1.215731291E1,-1.433143616E1,-4.207492352E0,5.667232037E0
1.216731291E1,-1.511712074E1,-5.831369400E0,7.114509583E0
1.217731291E1,-1.445786476E1,-6.269258022E0,6.608858109E0
1.218731291E1,-1.417025948E1,-6.553868294E0,3.891989708E0
1.219731291E1,-1.378576469E1,-7.802326202E0,3.941022396E0
1.220731288E1,-1.279396629E1,-8.165155411E0,5.643375397E0
1.221731284E1,-1.311148834E1,-7.572234154E0,5.100572586E0
1.222731288E1,-1.380683613E1,-5.987492085E0,4.504540443E0
1.223731288E1,-1.343785095E1,-4.292979240E0,3.674560070E0
1.224731288E1,-1.234049416E1,-2.989840031E0,3.062972546E0
1.225731284E1,-1.151692200E1,-2.000533581E0,2.263337135E0
1.226731284E1,-1.014304352E1,-1.272869110E0,4.065447330E0
1.227731288E1,-8.808292389E0,-1.769848824E0,9.011931419E0
1.228731288E1,-9.609571457E0,-3.342901707E0,1.308758926E1
1.229731288E1,-1.065755272E1,-5.019368172E0,1.603813744E1
1.230731284E1,-1.114106369E1,-5.135796070E0,1.784129143E1
1.231731287E1,-1.213071537E1,-3.959059238E0,1.778891945E1
1.232731291E1,-1.162015724E1,-3.389404774E0,1.417392921E1
1.233731291E1,-1.124468327E1,-3.233761311E0,1.102614403E1
1.234731291E1,-1.100049973E1,-1.894634724E0,9.462296486E0
1.235731291E1,-1.189962006E1,-6.103830338E-1,9.473551750E0
1.236731287E1,-1.231973076E1,3.905982971E-1,9.712890625E0
1.237731287E1,-1.255867386E1,-9.352064133E-1,7.682003021E0
1.238731291E1,-1.042603016E1,-3.476195335E0,7.102855206E0
1.239731291E1,-7.335029602E0,-3.658633709E0,8.203099251E0
1.240731291E1,-6.271743774E0,-3.223230839E0,8.739275932E0
1.241731287E1,-6.987398148E0,-3.516801834E0,8.539735794E0
1.242731290E1,-1.018567085E1,-3.913009644E0,7.432063103E0
1.243731290E1,-1.072837257E1,-2.757436275E0,6.320868015E0
1.244731224E1,-1.047882271E1,4.148674011E-2,5.699891567E0
1.245731150E1,-9.730068207E0,1.779724598E0,5.042074203E0
1.246731077E1,-9.348987579E0,2.496914864E0,4.769743443E0
1.247731004E1,-9.940781593E0,2.879640579E0,5.903935432E0
1.248730914E1,-1.005552101E1,3.961920261E0,6.574652672E0
1.249730917E1,-1.003209972E1,3.966576576E0,6.578466415E0
1.250730917E1,-8.298520088E0,5.996952534E0,6.818546295E0
1.251730917E1,-7.195879459E0,6.058779716E0,8.147983551E0
1.252730914E1,-6.741297722E0,5.791267395E0,8.039824486E0
1.253730917E1,-6.896972656E0,6.010017872E0,7.116948128E0
1.254730917E1,-6.128207207E0,6.644031048E0,6.412025928E0
1.255730917E1,-5.099413395E0,6.701604366E0,5.721739292E0
1.256730913E1,-4.661489964E0,6.603772163E0,5.133334160E0
1.257730910E1,-4.837934494E0,5.258726120E0,4.306803703E0
1.258730913E1,-4.860294342E0,5.020395279E0,3.976701260E0
1.259730913E1,-4.530187607E0,4.997523308E0,3.446306229E0
1.260730913E1,-3.827622414E0,6.025682926E0,3.998578072E0
1.261730910E1,-3.910958529E0,5.924524784E0,4.530444622E0
1.262730906E1,-4.328211784E0,5.180756569E0,3.982766151E0
1.263730907E1,-5.554214478E0,4.625178337E0,2.801808596E0
1.264730910E1,-6.943413734E0,4.389745712E0,1.278007269E0
1.265730910E1,-8.701473236E0,3.245644569E0,1.110777855E-1
1.266730910E1,-1.073377991E1,1.884952545E0,-1.636075020E0
1.267730906E1,-1.350537491E1,4.028677940E-1,-1.917874813E0
1.268730906E1,-1.659576225E1,-1.130406380E0,-7.434701920E-2
1.269730910E1,-1.875718880E1,-2.642254829E0,2.783826351E0
1.270730910E1,-1.827070808E1,-2.904305458E0,4.013929367E0
1.271730910E1,-1.511428547E1,-1.240291595E0,2.713534355E0
1.272730906E1,-1.645407867E1,-9.559412003E-1,-1.058888435E0
1.273730910E1,-1.707899284E1,5.676965714E-1,-5.231245995E0
1.274730980E1,-1.672390747E1,3.500452042E0,-7.511733055E0
1.275731050E1,-1.666395187E1,4.734791756E0,-3.739662170E-1
1.276731120E1,-1.465085602E1,3.927010536E0,4.782733440E0
1.277731193E1,-1.243569374E1,2.111692905E0,8.621712685E0
1.278731283E1,-1.052610207E1,5.785613060E-1,9.708988190E0
1.279731283E1,-8.565755844E0,-1.182101250E0,1.043638611E1
1.280731286E1,-7.240159035E0,-2.135571480E0,1.040942860E1
1.281731286E1,-8.368135452E0,-2.806303978E0,7.538766861E0
1.282731286E1,-1.239646435E1,-3.517316818E0,5.650440693E0
1.283731283E1,-1.560739613E1,-2.091517448E0,3.551108360E0
1.284731286E1,-1.485792446E1,1.129375935E0,2.855899096E0
1.285731289E1,-1.296164322E1,3.441400528E0,4.316646576E0
1.286731289E1,-1.391249657E1,3.818567276E0,5.353632450E0
1.287731289E1,-1.418496895E1,4.014127254E0,5.291340351E0
1.288731286E1,-1.427091503E1,3.558208942E0,4.315583706E0
1.289731289E1,-1.454923534E1,3.184279919E0,4.883551598E0
1.290731289E1,-1.374899101E1,3.294318676E0,5.593709946E0
1.291731289E1,-1.202588177E1,4.545473099E0,6.098718166E0
1.292731289E1,-1.106828976E1,5.025759220E0,6.617733002E0
1.293731289E1,-1.060055923E1,4.827397346E0,6.853663921E0
1.294731286E1,-9.302238464E0,5.095246792E0,6.796066284E0
1.295731289E1,-8.009224892E0,5.296806335E0,6.357831955E0
1.296731293E1,-7.136166573E0,5.293434143E0,5.935682297E0
1.297731293E1,-6.290929317E0,5.322525024E0,5.801537514E0
1.298731289E1,-5.245234489E0,5.232816696E0,5.526438236E0
1.299731286E1,-4.399371624E0,5.038734913E0,5.496516705E0
1.300731289E1,-3.686299324E0,4.870534420E0,5.338073730E0
1.301731289E1,-3.257874489E0,4.478193283E0,5.216217041E0
1.302731289E1,-2.975208998E0,4.167008400E0,5.602295399E0
1.303731286E1,-2.883100033E0,4.179686546E0,6.070449829E0
1.304731286E1,-3.182872772E0,4.422593117E0,6.392839432E0
1.305731289E1,-3.594126463E0,4.955850601E0,7.147372246E0
1.306731289E1,-3.547527313E0,5.700369835E0,8.079832077E0
1.307731289E1,-3.528335810E0,6.144223690E0,9.518526077E0
1.308731289E1,-3.215335608E0,6.267370701E0,1.010741806E1
1.309731286E1,-3.402810097E0,6.000679970E0,1.014226818E1
1.310731282E1,-4.080600262E0,5.438089371E0,1.012436295E1
1.311731285E1,-5.303306580E0,4.822357178E0,9.549365997E0
1.312731285E1,-7.118118763E0,4.767459393E0,8.884064674E0
1.313731285E1,-9.202512741E0,4.554057598E0,8.418458939E0
1.314731282E1,-1.123610306E1,4.473222256E0,7.888426781E0
1.315731282E1,-1.329986763E1,4.392003059E0,7.611433983E0
1.316731285E1,-1.493336582E1,4.256571770E0,7.607855320E0
1.317731285E1,-1.587139702E1,4.354142666E0,7.442700863E0
1.318731285E1,-1.573472023E1,4.801927090E0,6.966346264E0
1.319731282E1,-1.563332748E1,5.628358841E0,6.712679863E0
1.320731285E1,-1.508173370E1,5.019586563E0,5.609716415E0
1.321731289E1,-1.326985264E1,5.570673943E0,6.233916759E0
1.322731289E1,-1.247222233E1,6.242650032E0,7.510408878E0
1.323731289E1,-1.218521118E1,6.045181274E0,6.726881504E0
1.324731289E1,-1.195951843E1,4.833484650E0,4.787048340E0
1.325731285E1,-9.794630051E0,4.379802227E0,3.719513893E0
1.326731285E1,-9.976335526E0,2.282907486E0,5.704226494E0
1.327731288E1,-1.015309334E1,-1.316642761E-1,9.248289108E0
1.328731288E1,-9.675870895E0,-1.878145218E0,1.265234280E1
1.329731288E1,-8.630897522E0,-2.460634708E0,1.501481628E1
1.330731285E1,-8.753221512E0,-1.858357430E0,1.713298416E1
1.331731288E1,-1.023582077E1,1.646503448E0,1.793146515E1
1.332731292E1,-1.017017365E1,4.625798225E0,1.647516823E1
1.333731292E1,-9.073361397E0,4.978360653E0,1.428631592E1
1.334731288E1,-9.089480400E0,2.916116238E0,1.323493958E1
1.335731285E1,-9.544446945E0,-1.506519318E-2,1.290939236E1
1.336731288E1,-8.896257401E0,-1.807773590E0,1.286753941E1
1.337731288E1,-8.635918617E0,-2.888100147E0,1.259945107E1
1.338731288E1,-8.305427551E0,-2.694156647E0,1.192904091E1
1.339731288E1,-7.693985939E0,-2.534111023E0,1.074478531E1
1.340731291E1,-7.098409653E0,-2.130006790E0,9.133350372E0
1.341731291E1,-6.825624466E0,-1.732534409E0,8.036434174E0
1.342731291E1,-6.523593426E0,-7.645311356E-1,7.689156532E0
1.343731291E1,-6.668913841E0,4.397048950E-1,7.189051151E0
1.344731238E1,-7.340740681E0,1.612662792E0,6.292741299E0
1.345731141E1,-6.923246384E0,2.860908508E0,5.818341732E0
1.346731238E1,-6.370103359E0,3.875193596E0,5.600554466E0
1.347731171E1,-6.291380405E0,4.826460838E0,6.170134544E0
1.348731078E1,-6.320722580E0,5.756301403E0,6.678015709E0
1.349731078E1,-6.497618198E0,6.696396351E0,7.392902374E0
1.350731074E1,-5.801680088E0,7.404069424E0,7.874174118E0
1.351731074E1,-4.584802151E0,7.924022675E0,8.605289459E0
1.352731188E1,-3.063340425E0,8.297885895E0,9.085647583E0
1.353731188E1,-1.780721664E0,8.337373734E0,9.098817825E0
1.354731188E1,-7.854700685E-1,8.320888519E0,8.604710579E0
1.355731188E1,-1.065120101E-1,8.154242516E0,7.662290573E0
1.356731188E1,2.864685059E-1,7.953545094E0,6.664826393E0
1.357731188E1,2.364145517E-1,8.011513710E0,6.585083008E0
1.358731188E1,-8.851176500E-2,6.853104115E0,5.369633198E0
1.359731188E1,-5.301676989E-1,6.221447945E0,5.097122669E0
1.360731188E1,-1.220209599E0,5.698105812E0,5.351350784E0
1.361731184E1,-1.979354143E0,5.277041435E0,5.626698971E0
1.362731184E1,-2.972490788E0,4.857572556E0,5.500356674E0
1.363731188E1,-4.372167587E0,4.454615593E0,5.098813534E0
1.364731188E1,-6.683880806E0,3.894595623E0,4.376344681E0
1.365731188E1,-8.744826317E0,3.376038551E0,3.487984657E0
1.366731184E1,-1.134408092E1,3.315484047E0,1.994477034E0
1.367731188E1,-1.412252140E1,4.013801098E0,6.401748657E-1
1.368731188E1,-1.789142990E1,3.537465572E0,1.277451515E-1
1.369731188E1,-2.033571053E1,2.951773643E0,5.156879425E-1
1.370731184E1,-1.997876740E1,2.528531075E0,1.374168873E0
1.371731181E1,-1.785487938E1,2.702989578E0,2.980269670E0
1.372731181E1,-1.555535698E1,3.877073288E0,5.171203613E-2
1.373731184E1,-1.517684937E1,5.169104576E0,-2.271959782E0
1.374731241E1,-1.478821564E1,6.845965385E0,-2.365560532E0
1.375731334E1,-1.294923401E1,6.891583443E0,2.379775047E-1
1.376731234E1,-1.123522663E1,4.769721031E0,3.301358700E0
1.377731301E1,-1.017687607E1,2.813173294E0,5.981845379E0
1.378731397E1,-9.453588486E0,4.247665405E-1,9.114499092E0
1.379731397E1,-9.574584961E0,-1.681357384E0,1.179443169E1
1.380731397E1,-9.004228592E0,-2.813036919E0,1.409037399E1
1.381731394E1,-7.325518131E0,-2.615573883E0,1.650555992E1
1.382731280E1,-4.785843849E0,-1.843950272E0,1.439128113E1
1.383731284E1,-5.022449970E0,-1.413100243E0,1.257641220E1
1.384731284E1,-6.585777283E0,-7.991123199E-2,1.098373222E1
1.385731284E1,-9.433145523E0,2.194260597E0,1.023548317E1
1.386731280E1,-9.943542480E0,5.062685966E0,7.627170086E0
1.387731277E1,-1.008128643E1,6.376535416E0,7.453991413E0
1.388731277E1,-1.007574081E1,6.329458237E0,7.544995785E0
1.389731280E1,-1.003771496E1,6.943396568E0,1.031963730E1
1.390731280E1,-1.015885353E1,6.818258286E0,1.089357090E1
1.391731280E1,-9.959357262E0,6.943237782E0,1.059539986E1
1.392731277E1,-9.312868118E0,7.007844925E0,9.956052780E0
1.393731277E1,-7.856810093E0,6.949328423E0,8.821571350E0
1.394731333E1,-6.771937370E0,6.708299637E0,7.760023594E0
1.395731333E1,-5.880649567E0,6.508248329E0,6.923764229E0
1.396731333E1,-4.906890392E0,6.496272087E0,6.571825027E0
1.397731330E1,-4.023520470E0,6.423638821E0,6.439974785E0
1.398731333E1,-3.105665445E0,6.474929333E0,6.429889202E0
1.399731337E1,-2.210197449E0,6.487845421E0,6.228367805E0
1.400731337E1,-1.616829038E0,6.277247906E0,5.951098919E0
1.401731337E1,-1.218250394E0,6.226411819E0,6.126325607E0
1.402731337E1,-9.234105349E-1,6.533880711E0,6.488311291E0
1.403731337E1,-8.994083405E-1,6.719572544E0,6.970792770E0
1.404731333E1,-7.200026512E-1,6.912573814E0,7.682193279E0
1.405731333E1,-7.736282349E-1,6.757894516E0,7.751423359E0
1.406731333E1,-1.179217339E0,6.485914707E0,8.093422890E0
1.407731333E1,-1.615844011E0,6.207921028E0,8.151523590E0
1.408731330E1,-2.249800205E0,6.106717110E0,8.280779839E0
1.409731333E1,-2.862082481E0,6.314709187E0,7.792596817E0
1.410731336E1,-4.033557892E0,6.517453671E0,7.522446156E0
1.411731336E1,-4.020000458E0,6.474656105E0,7.574294567E0
1.412731336E1,-6.903530121E0,6.882444382E0,7.424005508E0
1.413731333E1,-8.408480644E0,7.282215595E0,7.281270981E0
1.414731336E1,-9.642264366E0,7.660343647E0,7.403311253E0
1.415731336E1,-1.082595444E1,7.728198051E0,8.036181450E0
1.416731336E1,-1.115332031E1,7.974026680E0,8.234667778E0
1.417731336E1,-1.148946762E1,7.786301613E0,8.058254242E0
1.418731340E1,-1.154339981E1,7.549384117E0,7.616927147E0
1.419731340E1,-1.083430576E1,6.382759094E0,7.568961143E0
1.420731340E1,-9.273744583E0,6.665230751E0,8.439844131E0
1.421731340E1,-9.198749542E0,8.366366386E0,9.282952309E0
1.422731340E1,-8.632974625E0,9.610728264E0,7.759207726E0
1.423731336E1,-1.053693771E1,9.219337463E0,7.157652855E0
1.424731279E1,-1.082893944E1,7.814990044E0,5.397212982E0
1.425731283E1,-1.068228149E1,5.228866577E0,6.539711475E0
1.426731283E1,-1.019215584E1,2.202606678E0,1.016892719E1
1.427731283E1,-1.016513729E1,1.633892059E-1,1.469293499E1
1.428731279E1,-9.635679245E0,-8.666563034E-2,1.703631783E1
1.429731279E1,-9.058048248E0,1.207741737E0,1.758271027E1
1.430731283E1,-8.556931496E0,2.668098450E0,1.503252983E1
1.431731283E1,-8.227444649E0,3.347058296E0,1.224191666E1
1.432731283E1,-7.742191315E0,2.859046936E0,1.152122498E1
1.433731279E1,-7.063586712E0,2.211188316E0,1.253175926E1
1.434731279E1,-6.808065414E0,1.690886497E0,1.347500706E1
1.435731279E1,-6.778792381E0,1.038585186E0,1.352240181E1
1.436731282E1,-7.404353142E0,-2.143707275E-1,1.295895481E1
1.437731282E1,-7.423478603E0,-1.723918915E-1,1.290806675E1
1.438731282E1,-6.780878067E0,-1.167518139E0,1.010479164E1
1.439731279E1,-7.033371449E0,-1.260174274E0,9.800645828E0
1.440731279E1,-6.857454777E0,-1.704244614E-1,9.494510651E0
1.441731282E1,-6.834288597E0,1.485953808E0,9.222373962E0
1.442731282E1,-6.836802483E0,1.478398323E0,9.235063553E0
1.443731282E1,-6.820538521E0,5.145891190E0,6.600903034E0
1.444731279E1,-5.982621193E0,5.504910469E0,5.063435078E0
1.445731282E1,-5.458747864E0,5.739934921E0,5.632377625E0
1.446731286E1,-5.068593979E0,6.380648613E0,6.190338135E0
1.447731286E1,-4.250458717E0,6.965760231E0,7.073169231E0
1.448731282E1,-3.421741962E0,7.168199539E0,7.839665413E0
1.449731279E1,-2.549030304E0,7.358335495E0,8.159720421E0
1.450731279E1,-1.374550104E0,7.455772400E0,8.081486702E0
1.451731282E1,-1.230945587E-1,7.496912003E0,8.368986130E0
1.452731285E1,6.598908901E-1,7.545131207E0,8.059086800E0
1.453731285E1,1.171546102E0,7.580617905E0,7.503223419E0
1.454731215E1,1.083308101E0,7.327498913E0,6.882009506E0
1.455731142E1,6.735076904E-1,6.976367950E0,6.016430378E0
1.456731052E1,-1.109869480E-1,6.795930386E0,5.075428963E0
1.457730985E1,-5.856828690E-1,6.914312363E0,4.777585030E0
1.458730892E1,-1.200474262E0,7.092256546E0,5.358618259E0
1.459730888E1,-1.720242023E0,7.384019852E0,6.001918793E0
1.460730885E1,-2.376451254E0,7.276193142E0,6.247907162E0
1.461730888E1,-3.261517286E0,7.081192970E0,6.305812359E0
1.462730888E1,-4.194073200E0,6.900491714E0,6.012814522E0
1.463730888E1,-4.262742996E0,6.924897671E0,6.003906250E0
1.464730888E1,-7.255372047E0,5.864749908E0,4.724250793E0
1.465730892E1,-9.360788345E0,5.429984093E0,3.598329067E0
1.466730892E1,-1.159148407E1,4.777652740E0,2.739204884E0
1.467730892E1,-1.400300312E1,3.998862743E0,2.399496317E0
1.468730892E1,-1.555749607E1,4.320290565E0,2.895510912E0
1.469730892E1,-1.655127525E1,4.413864136E0,4.339830399E0
1.470730888E1,-1.553074551E1,4.690103531E0,3.558582306E0
1.471730885E1,-1.384227276E1,5.277736187E0,3.567557335E-1
1.472730888E1,-1.307159805E1,5.830940723E0,-7.439069748E-1
1.473730888E1,-1.250655174E1,6.076914787E0,1.725528479E0
1.474730888E1,-1.279352379E1,4.790102482E0,4.774224281E0
1.475730885E1,-1.197319031E1,2.441627026E0,7.057069778E0
1.476730885E1,-1.100168228E1,-1.010216713E0,7.514314651E0
1.477730888E1,-1.064864349E1,-3.872502327E0,7.217806339E0
1.478730888E1,-9.355117798E0,-4.868582726E0,9.589384079E0
1.479730888E1,-6.252587795E0,-2.677498817E0,1.359763336E1
1.480730858E1,-2.975856066E0,2.407264709E-1,1.464519691E1
1.481730855E1,-2.268661022E0,3.678496838E0,1.474855804E1
1.482730851E1,-3.877659082E0,5.072752953E0,1.335304832E1
1.483730855E1,-6.239351273E0,4.992064476E0,1.081848049E1
1.484730925E1,-8.020696640E0,5.056158066E0,8.150969505E0
1.485730995E1,-9.022754669E0,5.251188755E0,7.298198700E0
1.486731085E1,-9.474566460E0,5.811435699E0,8.164974213E0
1.487731155E1,-9.656323433E0,5.935588837E0,9.523172379E0
1.488731251E1,-9.229736328E0,5.936418533E0,1.061465073E1
1.489731251E1,-8.727256775E0,5.963682652E0,1.092558002E1
1.490731251E1,-8.132403374E0,6.373750687E0,1.068159962E1
1.491731248E1,-7.099655151E0,6.708387375E0,9.925630569E0
1.492731251E1,-5.829108238E0,6.609397888E0,9.103062630E0
1.493731251E1,-4.672280788E0,6.351245403E0,8.494952202E0
1.494731251E1,-3.683737278E0,5.671215534E0,8.167157173E0
1.495731248E1,-2.980409384E0,5.615390301E0,7.711643219E0
1.496731244E1,-2.363411665E0,5.782050133E0,7.559872627E0
1.497731244E1,-1.685862780E0,5.979620457E0,7.313031197E0
1.498731248E1,-1.193458319E0,5.974707127E0,7.445673943E0
1.499731251E1,-6.202239990E-1,5.854306698E0,7.396943092E0
1.500731251E1,-3.520872593E-1,5.741912365E0,7.915668488E0
1.501731251E1,-1.476924419E-1,5.981567383E0,7.951058388E0
1.502731248E1,-2.887916565E-1,6.387224197E0,8.172854424E0
1.503731251E1,-4.975843430E-1,6.741563320E0,8.457904816E0
1.504731251E1,-3.819124699E-1,7.107796192E0,8.572689056E0
1.505731251E1,-6.462523937E-1,7.158724308E0,8.552564621E0
1.506731247E1,-1.012509823E0,6.944550991E0,8.051791191E0
1.507731244E1,-1.452866077E0,6.693284988E0,8.022489548E0
1.508731247E1,-2.348291636E0,5.916895866E0,8.180444717E0
1.509731247E1,-3.132893562E0,5.470084190E0,7.998786926E0
1.510731277E1,-4.252365112E0,5.595649719E0,7.860644341E0
1.511731277E1,-5.799045563E0,6.083293438E0,8.095239639E0
1.512731277E1,-6.767950535E0,6.650341511E0,7.983862877E0
1.513731274E1,-7.920763969E0,7.039166927E0,8.567122459E0
1.514731277E1,-9.353376389E0,7.356742382E0,9.623156548E0
1.515731277E1,-9.613785744E0,7.340852261E0,9.830024719E0
1.516731277E1,-9.538347244E0,6.712401867E0,9.235389709E0
1.517731274E1,-9.160007477E0,5.668582916E0,8.410877228E0
1.518731274E1,-8.780162811E0,4.787226200E0,8.268332481E0
1.519731277E1,-8.489309311E0,5.254111767E0,8.386158943E0
1.520731277E1,-8.390260696E0,7.012687206E0,8.631797791E0
1.521731277E1,-8.711317062E0,7.281342983E0,8.017849922E0
1.522731274E1,-8.524307251E0,7.454841137E0,6.862792015E0
1.523731277E1,-9.201273918E0,6.565175056E0,7.141026497E0
1.524731280E1,-9.281404495E0,4.351054192E0,8.556350708E0
1.525731280E1,-9.218738556E0,2.496391535E0,1.209876442E1
1.526731280E1,-9.065105438E0,2.163410187E0,1.604733276E1
1.527731280E1,-9.360004425E0,2.657550335E0,1.796346092E1
1.528731277E1,-9.103204727E0,3.280651093E0,1.721159935E1
1.529731277E1,-8.303010941E0,2.831616402E0,1.458003235E1
1.530731280E1,-7.925880432E0,1.626275539E0,1.291430378E1
1.531731280E1,-6.854161739E0,1.115893841E0,1.243595505E1
1.532731280E1,-6.144586086E0,1.209586620E0,1.284370995E1
1.533731277E1,-5.736728668E0,1.278506756E0,1.372413635E1
1.534731280E1,-5.312813282E0,1.071780205E0,1.393452835E1
1.535731283E1,-4.863051414E0,5.811648369E-1,1.334909058E1
1.536731283E1,-4.887217045E0,-8.817005157E-2,1.195250702E1
1.537731283E1,-5.029979706E0,-6.301879883E-1,1.029181767E1
1.538731280E1,-5.188046932E0,-1.012579918E0,9.361186028E0
1.539731283E1,-4.787683487E0,-6.563572884E-1,9.183876038E0
1.540731283E1,-4.289417267E0,2.286009789E-1,9.165664673E0
1.541731283E1,-4.069036961E0,1.527746201E0,8.118272781E0
1.542731283E1,-3.751761913E0,2.546348095E0,6.780234337E0
1.543731283E1,-3.305538177E0,3.543484688E0,7.126688480E0
1.544731280E1,-3.660606384E0,4.160608292E0,8.540880203E0
1.545731283E1,-2.716995239E0,4.605895042E0,8.423479080E0
1.546731287E1,-2.858416080E0,5.082242966E0,8.162440300E0
1.547731287E1,-2.361702442E0,5.587333679E0,8.241600990E0
1.548731283E1,-1.672645569E0,6.173510551E0,8.742725372E0
1.549731280E1,-5.882492065E-1,6.665596485E0,8.500298500E0
1.550731283E1,-1.907110214E-2,6.855411530E0,8.155369759E0
1.551731283E1,7.417860031E-1,6.826126575E0,7.545747757E0
1.552731283E1,7.460768223E-1,6.851970196E0,7.422153473E0
1.553731280E1,6.410615444E-1,6.885279179E0,6.932174683E0
1.554731280E1,3.848490715E-1,6.688197613E0,6.504849911E0
1.555731283E1,4.182014465E-1,6.592694283E0,6.035172462E0
1.556731283E1,6.715106964E-1,6.506515026E0,6.016458511E0
1.557731283E1,7.621779442E-1,6.654398918E0,6.512591362E0
1.558731283E1,4.953761101E-1,6.572708607E0,6.987815857E0
1.559731210E1,-1.563501358E-1,6.288769245E0,6.888845444E0
1.560731136E1,-1.336743832E0,6.068420887E0,6.588340282E0
1.561731046E1,-3.214183331E0,5.863266945E0,6.310623169E0
1.562730976E1,-5.231487274E0,5.468581200E0,5.526070118E0
1.563730906E1,-7.720773697E0,4.913699627E0,5.117161751E0
1.564730833E1,-1.057755280E1,4.113960266E0,5.178623199E0
1.565730833E1,-1.302934933E1,3.204601049E0,5.688857079E0
1.566730836E1,-1.451436901E1,2.474554539E0,6.606627941E0
1.567730836E1,-1.523901939E1,2.217947483E0,8.075107574E0
1.568730836E1,-1.484596825E1,2.424214840E0,8.280103683E0
1.569730833E1,-1.385575867E1,3.359705210E0,4.702617645E0
1.570730766E1,-1.356578827E1,4.063860416E0,1.397645950E0
1.571730769E1,-1.315858269E1,5.737174511E0,4.441933632E-1
1.572730769E1,-1.093192291E1,7.316545010E0,2.268436193E0
1.573730726E1,-7.277250290E0,6.157521248E0,6.138981342E0
1.574730726E1,-4.882802963E0,3.518982172E0,7.883132458E0
1.575730722E1,-3.945199490E0,9.748821259E-1,9.317907333E0
1.576730722E1,-4.082979679E0,-1.153674126E0,1.061067867E1
1.577730726E1,-3.318240643E0,-3.844943523E0,1.325340748E1
1.578730726E1,-3.219860792E0,-5.691463470E0,1.690937424E1
1.579730726E1,-2.676350832E0,-6.846584797E0,1.882545090E1
1.580730722E1,-5.279148102E0,-6.043408871E0,1.815087128E1
1.581730696E1,-9.500126839E0,-2.552938461E-2,1.373351097E1
1.582730699E1,-9.671610832E0,4.576128960E0,9.635406494E0
1.583730699E1,-8.108033180E0,6.107603073E0,8.748008728E0
1.584730696E1,-6.011569023E0,6.592331409E0,9.477283478E0
1.585730692E1,-5.333093643E0,6.899061680E0,1.147974777E1
1.586730695E1,-5.667622566E0,6.792816162E0,1.213090897E1
1.587730695E1,-6.129384995E0,6.597857475E0,1.265065193E1
1.588730695E1,-6.332653999E0,6.562259674E0,1.367733192E1
1.589730765E1,-6.659267426E0,6.236740112E0,1.344954681E1
1.590730835E1,-6.482835293E0,5.822983742E0,1.251171494E1
1.591730925E1,-5.575607777E0,5.134724617E0,1.111583138E1
1.592730999E1,-4.821998119E0,4.607172012E0,9.386501312E0
1.593731069E1,-3.874690533E0,4.459937096E0,8.017605782E0
1.594731139E1,-2.749087334E0,4.655745029E0,7.489845276E0
1.595731135E1,-1.702689171E0,4.668818474E0,7.417471886E0
1.596731132E1,-5.710229874E-1,4.910081863E0,7.719243050E0
1.597731135E1,1.885123253E-1,5.282962799E0,7.821883678E0
1.598731135E1,6.761949062E-1,5.282912731E0,8.004858017E0
1.599731135E1,1.263527632E0,5.228936672E0,8.505037308E0
1.600731202E1,1.686081648E0,5.056999207E0,8.631362915E0
1.601731202E1,1.691226244E0,4.859759331E0,8.741035461E0
1.602731205E1,1.720103502E0,4.647547245E0,8.853757858E0
1.603731248E1,1.563759804E0,4.341043472E0,9.070064545E0
1.604731248E1,1.383915901E0,3.907813072E0,9.398382187E0
1.605731248E1,9.374270439E-1,3.290748835E0,9.682658195E0
1.606731248E1,6.060819626E-1,2.946671963E0,9.771609306E0
1.607731248E1,-5.437517166E-2,3.108494520E0,9.478986740E0
1.608731248E1,-1.421911716E0,4.085655689E0,8.691182137E0
1.609731248E1,-3.194296360E0,4.753638268E0,8.367133141E0
1.610731248E1,-4.814478874E0,5.266054153E0,8.232015610E0
1.611731275E1,-6.261838436E0,5.855717659E0,8.221328735E0
1.612731275E1,-7.639818668E0,6.765652180E0,8.827900887E0
1.613731278E1,-9.315130234E0,7.900669575E0,9.953592300E0
1.614731278E1,-1.070673561E1,8.372546196E0,1.114101601E1
1.615731278E1,-1.171980476E1,6.096789837E0,9.043237686E0
1.616731275E1,-1.143507385E1,2.734492779E0,6.124847889E0
1.617731265E1,-1.021557140E1,1.588325262E0,7.087476254E0
1.618731265E1,-8.240287781E0,3.159392834E0,9.369360924E0
1.619731265E1,-7.383301735E0,5.023413181E0,1.057740593E1
1.620731265E1,-7.351366997E0,5.517080307E0,9.039157867E0
1.621731265E1,-7.569441795E0,4.816644669E0,6.915152073E0
1.622731262E1,-7.922992706E0,3.000112534E0,5.515837669E0
1.623731265E1,-6.898356438E0,1.621258736E0,8.015428543E0
1.624731268E1,-6.874573231E0,1.558519840E0,8.039504051E0
1.625731268E1,-4.983927727E0,-1.651573658E0,1.737281418E1
1.626731268E1,-4.757040024E0,-2.626150608E0,2.027356339E1
1.627731265E1,-5.303973675E0,-1.479468346E0,2.086428070E1
1.628731268E1,-6.202445984E0,2.028395176E0,1.840123367E1
1.629731268E1,-6.568811893E0,4.378251076E0,1.550244522E1
1.630731268E1,-7.294459820E0,4.625511169E0,1.402181911E1
1.631731265E1,-7.030947685E0,3.166517735E0,1.345367622E1
1.632731261E1,-6.950227261E0,1.038255692E0,1.346717644E1
1.633731264E1,-6.615090370E0,-2.315621376E-1,1.253494835E1
1.634731264E1,-6.424689770E0,-1.298672676E0,1.150893974E1
1.635731264E1,-6.359483719E0,-1.799966335E0,1.072685146E1
1.636731261E1,-5.826405525E0,-1.667675972E0,1.038731670E1
1.637731258E1,-5.556928158E0,-8.604998589E-1,1.038889503E1
1.638731258E1,-5.559063911E0,4.450387955E-1,9.244564056E0
1.639731261E1,-5.598484516E0,1.619086981E0,8.999852180E0
1.640731261E1,-4.928915501E0,2.706416607E0,8.673706055E0
1.641731261E1,-4.291398048E0,3.276094913E0,8.629137993E0
1.642731258E1,-3.755694389E0,3.637253046E0,8.156821251E0
1.643731258E1,-2.839679241E0,3.920162201E0,7.934958458E0
1.644731184E1,-2.099561214E0,4.002008915E0,8.213057518E0
1.645734518E1,-2.152904510E0,4.023641586E0,8.234027863E0
1.646737851E1,-7.251167297E-2,4.639926434E0,9.495171547E0
1.647741194E1,1.141768456E0,4.996799469E0,1.005223465E1
1.648744531E1,2.037886143E0,5.330023289E0,1.024621582E1
1.649747867E1,2.142619133E0,5.482250690E0,1.011752892E1
1.650751201E1,1.847636461E0,5.306047916E0,9.549218178E0
1.651754534E1,1.502589703E0,5.012882710E0,8.794347763E0
1.652757867E1,1.040464878E0,4.888909817E0,7.966505051E0
1.653761200E1,7.979993820E-1,4.893909454E0,7.484257221E0
1.654764530E1,4.112830162E-1,4.747876644E0,7.863142967E0
1.655767834E1,6.196308136E-2,4.599006653E0,8.259280205E0
1.656771167E1,-2.141761780E-1,4.466426373E0,8.234647751E0
1.657774500E1,-8.428316116E-1,4.287511826E0,8.065896034E0
1.658777830E1,-1.323952675E0,4.001021385E0,7.716892242E0
1.659781167E1,-2.650815964E0,3.408736467E0,7.459317684E0
1.660784504E1,-4.538256645E0,2.934394121E0,6.765244961E0
1.661787767E1,-7.086607933E0,2.416899681E0,5.583638191E0
1.662791030E1,-1.006791210E1,1.965176582E0,4.279951096E0
1.663794267E1,-1.268219948E1,2.142036676E0,3.882420778E0
1.664797580E1,-1.429429436E1,3.085908175E0,5.338126183E0
1.665800820E1,-1.372713947E1,4.120629787E0,8.796779633E0
1.666804160E1,-1.267838097E1,4.936091423E0,8.823739052E0
1.667807493E1,-1.299342918E1,5.609324932E0,4.805703163E0
1.668810827E1,-1.355526829E1,6.866674900E0,2.138849735E0
1.669814157E1,-1.328226662E1,8.558934212E0,2.737425327E0
1.670817423E1,-1.097275448E1,9.372707367E0,5.590912819E0
1.671820757E1,-1.098884392E1,9.438282013E0,5.539129257E0
1.672824090E1,-5.147977829E0,3.788872242E0,8.817628860E0
1.673827420E1,-4.166851997E0,1.972270012E-1,1.027878189E1
1.674830827E1,-3.113708258E0,-3.125196457E0,1.280694485E1
1.675830830E1,-3.340487003E0,-5.437868118E0,1.663663483E1
1.676830830E1,-1.763143539E0,-7.301735401E0,1.973898888E1
1.677830830E1,-1.030585289E0,-6.828658581E0,1.862850952E1
1.678830826E1,-5.126142025E0,-4.040329456E0,1.425446701E1
1.679830826E1,-9.839188576E0,1.159915924E0,1.157489586E1
1.680830830E1,-1.101910210E1,3.876056433E0,8.481170654E0
1.681830830E1,-9.404132843E0,4.464461327E0,8.137292862E0
1.682830830E1,-7.247950077E0,5.226150513E0,1.068103409E1
1.683830826E1,-5.793258190E0,6.241527081E0,1.318494797E1
1.684830826E1,-4.997094154E0,7.133320808E0,1.420430565E1
1.685830856E1,-5.203415871E0,7.225086212E0,1.398983955E1
1.686830860E1,-6.034272194E0,6.908892632E0,1.362796211E1
1.687830860E1,-6.745506287E0,6.599690914E0,1.312516117E1
1.688830860E1,-6.895076752E0,5.841939449E0,1.230486870E1
1.689830856E1,-6.042660236E0,5.117221832E0,1.085916519E1
1.690830856E1,-4.743087292E0,4.711896420E0,8.911832809E0
1.691830930E1,-3.669925690E0,4.456136703E0,7.513343811E0
1.692831000E1,-2.826148033E0,4.364683628E0,7.354809761E0
1.693831093E1,-1.393397331E0,4.644756317E0,7.400180817E0
1.694831113E1,-5.008811951E-1,4.669234753E0,7.500413418E0
1.695831209E1,-4.739980698E-1,4.642304420E0,7.507909298E0
1.696831203E1,9.500725269E-1,5.088246822E0,7.905797958E0
1.697831203E1,1.232529640E0,5.133607388E0,8.044978142E0
1.698831203E1,1.554042816E0,5.169177055E0,8.465390205E0
1.699831203E1,1.680976868E0,5.069862366E0,8.823094368E0
1.700831273E1,1.527724028E0,4.571828842E0,9.261440277E0
1.701831273E1,1.287734985E0,4.291250706E0,9.139171600E0
1.702831273E1,8.624389172E-1,4.032687187E0,8.964629173E0
1.703831273E1,3.034844398E-1,3.937649250E0,8.919016838E0
1.704831273E1,-3.363318443E-1,4.168297768E0,8.964378357E0
1.705831269E1,-1.062474251E0,4.460033417E0,8.674380302E0
1.706831273E1,-2.208142757E0,5.029695988E0,8.699028969E0
1.707831273E1,-3.383354187E0,5.942566872E0,8.785120964E0
1.708831273E1,-4.627002716E0,7.115655422E0,8.841695786E0
1.709831269E1,-5.854847431E0,8.216659546E0,9.118291855E0
1.710831266E1,-7.218787670E0,8.653759003E0,9.258669853E0
1.711831269E1,-8.420985222E0,8.219612122E0,9.156011581E0
1.712831269E1,-8.696939468E0,7.201521873E0,8.914108276E0
1.713831269E1,-8.864509583E0,5.628293991E0,9.066841125E0
1.714831269E1,-8.516050339E0,3.155210495E0,9.100786209E0
1.715831269E1,-7.890577793E0,1.320604563E0,9.060331345E0
1.716831266E1,-8.055562973E0,7.994599342E-1,9.643774986E0
1.717831269E1,-7.949441433E0,2.661560059E0,8.988124847E0
1.718831269E1,-8.346562386E0,3.557109356E0,7.969131947E0
1.719831269E1,-8.573745728E0,3.679881096E0,6.962158680E0
1.720831266E1,-8.406614304E0,3.321891546E0,6.268829346E0
1.721831266E1,-6.333191872E0,3.516499519E0,9.726879120E0
1.722831269E1,-5.386749744E0,2.600059032E0,1.453242683E1
1.723831269E1,-4.596117496E0,2.064965248E0,1.701061821E1
1.724831269E1,-3.921435356E0,2.933365345E0,1.862364960E1
1.725831266E1,-3.698774815E0,5.495393276E0,1.955381775E1
1.726831269E1,-3.107432365E0,7.656808853E0,1.867314720E1
1.727831272E1,-3.903984070E0,8.365529060E0,1.620575333E1
1.728831272E1,-6.188644409E0,7.943684578E0,1.471440697E1
1.729831272E1,-8.441213608E0,6.440716267E0,1.355322456E1
1.730831269E1,-8.921672821E0,4.132737637E0,1.300502682E1
1.731831269E1,-9.342679977E0,1.843542337E0,1.358406448E1
1.732831272E1,-9.691186905E0,-1.538028717E-1,1.307264519E1
1.733831275E1,-9.066003799E0,-1.880929947E0,1.137105846E1
1.734831275E1,-7.107541084E0,-1.746853352E0,1.019914436E1
1.735831275E1,-5.659989357E0,-1.384661198E0,1.008053303E1
1.736831272E1,-4.195292950E0,-5.181670189E-1,1.010824776E1
1.737831275E1,-3.425811291E0,2.695484161E-1,9.031365395E0
1.738831278E1,-3.416226387E0,1.399221420E0,7.986435413E0
1.739831278E1,-3.677996159E0,2.732372761E0,7.502547741E0
1.740831278E1,-3.747536182E0,4.201317787E0,7.512537479E0
1.741831275E1,-3.660848618E0,5.608052731E0,7.928541660E0
1.742831278E1,-3.181649685E0,6.673440456E0,8.493309021E0
1.743831278E1,-2.616795063E0,7.407152653E0,9.402650833E0
1.744831278E1,-2.226742744E0,8.369515419E0,9.868257523E0
1.745831278E1,-1.539395809E0,8.782860756E0,1.001668453E1
1.746831278E1,-1.106419563E0,8.862210274E0,1.006362152E1
1.747831275E1,-6.543078423E-1,8.409326553E0,9.897420883E0
1.748831278E1,-1.700468063E-1,7.245067596E0,9.452953339E0
1.749831282E1,5.397133827E-1,6.288464546E0,8.872895241E0
1.750831282E1,9.223151207E-1,5.085467815E0,7.725030899E0
1.751831278E1,1.306233883E0,4.424622536E0,6.346969128E0
1.752831275E1,1.187705994E0,3.677067041E0,5.770734787E0
1.753831278E1,1.018609047E0,3.361969948E0,5.604989529E0
1.754831278E1,4.152507782E-1,3.413198471E0,6.257157326E0
1.755831208E1,-2.744643688E-1,3.572233200E0,6.925400734E0
1.756831205E1,-7.230873108E-1,3.806645632E0,6.763810158E0
1.757831205E1,-1.418716669E0,4.620116234E0,6.650785446E0
1.758831208E1,-2.621975183E0,5.374284744E0,6.393673897E0
1.759831208E1,-4.103420258E0,5.686041355E0,5.892377853E0
1.760831208E1,-5.657820702E0,5.686828136E0,5.518681526E0
1.761831138E1,-8.051956177E0,5.522468567E0,4.666355133E0
1.762831108E1,-1.045947075E1,5.611092567E0,3.323055506E0
1.763831015E1,-1.253895950E1,6.956988335E0,2.188527107E0
1.764830945E1,-1.323015404E1,8.814706802E0,3.085043907E0
1.765830875E1,-1.334696960E1,9.918130875E0,6.277051926E0
1.766830781E1,-1.274584389E1,1.049477673E1,7.501489162E0
1.767830778E1,-1.182419109E1,9.354331017E0,6.788311958E0
1.768830734E1,-1.115474319E1,7.468688488E0,5.176923275E0
1.769830738E1,-1.250101089E1,6.147961617E0,5.222300053E0
1.770830668E1,-1.392582035E1,4.357930183E0,7.345501900E0
1.771830624E1,-1.398528576E1,1.002931595E-1,8.043077469E0
1.772830621E1,-1.296991158E1,-3.527151108E0,9.129972458E0
1.773830624E1,-8.743646622E0,-4.374470711E0,1.437309647E1
1.774830628E1,-1.580504417E0,-1.401939392E0,1.690380669E1
1.775830628E1,2.579004288E0,1.147581577E0,1.583062840E1
1.776830628E1,1.164417744E0,2.472842216E0,1.418156624E1
1.777830628E1,-2.373100519E0,3.750092030E0,1.255727577E1
1.778830628E1,-6.065391064E0,4.757922649E0,9.927598953E0
1.779830624E1,-7.989743710E0,5.773594856E0,7.698167801E0
1.780830624E1,-8.519222260E0,6.844161987E0,7.635307789E0
1.781830624E1,-8.808433533E0,7.359302044E0,9.862994194E0
1.782830624E1,-8.701976776E0,7.168609142E0,1.243015957E1
1.783830621E1,-8.632066727E0,7.139358044E0,1.243618965E1
1.784830624E1,-8.195129395E0,7.337544918E0,1.351005554E1
1.785830627E1,-7.378699303E0,7.837591171E0,1.184389496E1
1.786830627E1,-6.176675797E0,8.021936417E0,9.847064972E0
1.787830624E1,-4.758923531E0,7.798398972E0,7.064145088E0
1.788830621E1,-3.923594713E0,7.378702164E0,5.752614498E0
1.789830624E1,-3.019012213E0,7.044178963E0,4.906272888E0
1.790830624E1,-2.317030668E0,6.812469482E0,4.966105938E0
1.791830694E1,-1.290529490E0,6.657871723E0,5.760838985E0
1.792830720E1,-2.841861248E-1,6.469557285E0,6.559545517E0
1.793830810E1,3.503203392E-1,6.066374779E0,6.459058762E0
1.794830880E1,1.187740088E0,5.610206127E0,5.992177010E0
1.795830954E1,1.738437653E0,5.587296009E0,6.588491440E0
1.796831047E1,1.983762503E0,5.455719948E0,6.129089355E0
1.797831047E1,1.789023161E0,6.053142548E0,6.805414200E0
1.798831087E1,9.538879395E-1,6.911405087E0,6.816019058E0
1.799831084E1,2.843213081E-2,7.108912468E0,6.041256428E0
1.800831157E1,-6.520483494E-1,6.881684303E0,5.964480877E0
1.801831200E1,-1.353954792E0,6.988190174E0,6.492057800E0
1.802831200E1,-1.631980419E0,7.281760216E0,6.676725388E0
1.803831197E1,-2.011974812E0,7.419671059E0,7.147004128E0
1.804831197E1,-2.754549503E0,7.527491093E0,7.594511509E0
1.805831200E1,-3.841791153E0,7.860870838E0,7.957834244E0
1.806831200E1,-4.871698380E0,8.215803146E0,7.753533363E0
1.807831200E1,-5.854108334E0,8.890404701E0,8.009214401E0
1.808831197E1,-7.341526985E0,9.134293556E0,8.876382828E0
1.809831200E1,-8.434158325E0,8.936968803E0,9.287643433E0
1.810831203E1,-9.554101944E0,8.266164780E0,9.201231956E0
1.811831203E1,-1.072259045E1,7.270352840E0,9.164325714E0
1.812831203E1,-1.144092751E1,6.143385887E0,9.229475021E0
1.813831203E1,-1.112348366E1,5.451596737E0,9.695704460E0
1.814831163E1,-1.029776096E1,6.159432888E0,9.585834503E0
1.815831233E1,-9.751344681E0,7.281845093E0,8.924774170E0
1.816831237E1,-9.475816727E0,7.798224449E0,7.619356155E0
1.817831237E1,-9.153197289E0,7.362682819E0,6.375533581E0
1.818831237E1,-8.776491165E0,6.593746662E0,5.847738266E0
1.819831233E1,-7.629143238E0,5.911888599E0,6.111678123E0
1.820831236E1,-5.212503433E0,6.042863846E0,9.325349808E0
1.821831237E1,-3.738098621E0,5.801350594E0,1.271903610E1
1.822831236E1,-2.884032249E0,5.129916668E0,1.528503227E1
1.823831237E1,-2.733066559E0,5.510718346E0,1.791279411E1
1.824831236E1,-3.668992043E0,7.647292614E0,1.986864471E1
1.825831237E1,-4.366320133E0,9.306720734E0,1.950454330E1
1.826831236E1,-5.373627663E0,9.456453323E0,1.667598343E1
1.827831236E1,-7.709193230E0,7.871317387E0,1.267637920E1
1.828831237E1,-9.226284027E0,5.323595047E0,9.911957741E0
1.829831236E1,-9.693539619E0,2.716532707E0,9.787944794E0
1.830831233E1,-8.862983704E0,1.170057297E0,1.050743580E1
1.831831236E1,-7.991775990E0,3.039169312E-1,1.099821091E1
1.832831236E1,-7.481496811E0,-5.740566254E-1,1.080645370E1
1.833831236E1,-6.577711582E0,-1.408391476E0,9.224475861E0
1.834831233E1,-5.828966141E0,-1.559267044E0,6.666391850E0
1.835831230E1,-4.618469715E0,-1.042961597E0,5.816145897E0
1.836831233E1,-4.040411949E0,4.558019638E-1,7.071264267E0
1.837831233E1,-4.039619446E0,2.044705868E0,9.038572311E0
1.838831233E1,-4.140893936E0,3.964985132E0,8.736171722E0
1.839831230E1,-4.279967785E0,5.435587883E0,8.075979233E0
1.840831226E1,-4.178431511E0,6.856478691E0,7.486861706E0
1.841831226E1,-3.878389120E0,7.971771240E0,7.597431183E0
1.842831229E1,-3.314725161E0,8.867251396E0,8.162146568E0
1.843831229E1,-2.378824711E0,9.411406517E0,8.858756065E0
1.844831266E1,-1.632378578E0,9.935156822E0,9.340850830E0
1.845831263E1,-1.166432858E0,9.981673241E0,9.298600197E0
1.846831263E1,-7.555327415E-1,9.762461662E0,8.299839020E0
1.847831266E1,-6.295940876E-1,9.020307541E0,7.655315399E0
1.848831266E1,-7.352235317E-1,8.062400818E0,7.014173031E0
1.849831266E1,-7.268321514E-1,7.022737503E0,6.301074028E0
1.850831263E1,-4.538710117E-1,6.265687943E0,5.476512909E0
1.851831266E1,-4.605722427E-1,5.516074181E0,4.993534565E0
1.852831269E1,-6.015689373E-1,4.855484486E0,4.546119213E0
1.853831269E1,-4.617416859E-1,4.623717308E0,4.083197117E0
1.854831269E1,-5.605468750E-1,4.944058895E0,4.341299057E0
1.855831266E1,-9.026980400E-1,5.106929302E0,4.585403442E0
1.856831269E1,-1.354493141E0,5.676807404E0,4.444229126E0
1.857831269E1,-2.718264341E0,6.012394905E0,4.523218632E0
1.858831239E1,-4.055991650E0,6.559294224E0,4.452225208E0
1.859831239E1,-6.121037006E0,7.010890484E0,3.969503403E0
1.860831239E1,-8.962368965E0,7.380648613E0,2.851382732E0
1.861831166E1,-1.172282791E1,7.920375824E0,1.496891022E0
1.862831099E1,-1.403572845E1,8.545110703E0,1.467944622E0
1.863831009E1,-1.500869370E1,8.897740364E0,3.823509932E0
1.864830939E1,-1.464565754E1,8.305816650E0,6.896863937E0
1.865830869E1,-1.416153145E1,7.667963505E0,5.600582123E0
1.866830772E1,-1.408161926E1,7.351622105E0,7.604324818E-1
1.867830776E1,-1.486994267E1,7.682188034E0,-1.760707378E0
1.868830776E1,-1.388721657E1,8.744391441E0,9.579372406E-2
1.869830776E1,-1.149489117E1,7.450830460E0,3.996688843E0
1.870830732E1,-8.991466522E0,4.906226635E0,6.410759449E0
1.871830735E1,-6.453700066E0,1.858251572E0,6.275014877E0
1.872830735E1,-6.497243881E0,1.904554367E0,6.177617550E0
1.873830735E1,-4.909273624E0,-2.863286018E0,9.863442421E0
1.874830735E1,-3.402755976E0,-3.685554504E0,1.404070663E1
1.875830735E1,-2.307864904E0,-2.084703445E0,1.708611107E1
1.876830732E1,-3.298361301E0,3.583459854E-1,1.452798843E1
1.877830729E1,-7.027878761E0,3.779930115E0,1.096485615E1
1.878830732E1,-1.000153351E1,6.281664848E0,8.668657303E0
1.879830732E1,-1.088887119E1,6.904786587E0,5.207426548E0
1.880830732E1,-9.767157555E0,7.808723927E0,5.492125511E0
1.881830729E1,-8.508255959E0,8.453957558E0,7.012454987E0
1.882830658E1,-7.867194176E0,8.921061516E0,7.878380299E0
1.883830662E1,-7.764118195E0,9.014716148E0,8.692007065E0
1.884830662E1,-7.961778164E0,9.026001930E0,9.095901489E0
1.885830662E1,-7.485266685E0,8.922364235E0,9.227783203E0
1.886830658E1,-6.400784016E0,8.863604546E0,8.606678009E0
1.887830658E1,-5.070897102E0,8.507094383E0,7.479997635E0
1.888830688E1,-3.909693480E0,7.986378670E0,6.390979767E0
1.889830692E1,-2.793084860E0,7.303800583E0,5.796929359E0
1.890830692E1,-1.990910769E0,6.903003693E0,5.651244164E0
1.891830762E1,-1.364674807E0,6.650807858E0,5.569023132E0
1.892830828E1,-6.388194561E-1,6.180166721E0,5.616283417E0
1.893830922E1,-1.321711540E-1,5.946944237E0,5.553512096E0
1.894830995E1,2.886927128E-1,5.675884724E0,5.216129780E0
1.895831065E1,3.149561882E-1,5.712637901E0,5.138140678E0
1.896831158E1,1.015496254E-1,5.922763348E0,5.196607590E0
1.897831155E1,-5.235419273E-1,6.564332485E0,5.318067074E0
1.898831158E1,-8.405840397E-1,7.504171371E0,5.530796051E0
1.899831161E1,-1.028637171E0,8.304180145E0,5.990284920E0
1.900831135E1,-1.101207495E0,8.785105705E0,5.801049709E0
1.901831131E1,-1.359189272E0,8.874347687E0,5.721978188E0
1.902831128E1,-1.647528410E0,8.925396919E0,5.982312202E0
1.903831131E1,-2.250937700E0,8.424489975E0,6.402262688E0
1.904831131E1,-3.069259882E0,7.934228897E0,6.737596512E0
1.905831131E1,-4.028376579E0,7.983029366E0,6.331643105E0
1.906831131E1,-5.423849106E0,8.260302544E0,6.115784168E0
1.907831131E1,-7.035450935E0,8.398964882E0,6.238226891E0
1.908831128E1,-8.717404366E0,8.274406433E0,6.620672703E0
1.909831131E1,-1.020308018E1,8.083790779E0,7.141148567E0
1.910831134E1,-1.098153973E1,8.046899796E0,7.583815575E0
1.911831134E1,-1.065573692E1,8.017620087E0,7.983076572E0
1.912831201E1,-9.407043457E0,7.570233345E0,8.394275665E0
1.913831198E1,-8.569541931E0,8.348381996E0,8.837261200E0
1.914831201E1,-7.553073883E0,9.800862312E0,7.689077377E0
1.915831201E1,-8.424139023E0,1.055937195E1,8.019702911E0
1.916831201E1,-9.168433189E0,9.614236832E0,5.239404678E0
1.917831201E1,-1.001634598E1,8.250814438E0,4.380015850E0
1.918831204E1,-1.052297306E1,6.255990982E0,3.802615404E0
1.919831204E1,-9.922660828E0,4.728044510E0,5.551160336E0
1.920831204E1,-8.331562042E0,3.999461889E0,1.035979843E1
1.921831204E1,-6.786306381E0,3.632402897E0,1.311112404E1
1.922831204E1,-5.554969788E0,3.516180038E0,1.520200348E1
1.923831201E1,-4.831025600E0,5.282387733E0,1.665460014E1
1.924822564E1,-4.077844143E0,7.842716217E0,1.594529915E1
1.925822604E1,-3.785264492E0,8.483353615E0,1.363757610E1
1.926822604E1,-5.128841400E0,7.188390732E0,1.172824478E1
1.927822604E1,-7.205739498E0,5.029257774E0,1.034349251E1
1.928822601E1,-8.663083076E0,3.055900574E0,1.034407806E1
1.929822601E1,-9.369096756E0,1.397369862E0,1.095478249E1
1.930822674E1,-9.438381195E0,4.850873947E-1,1.059449863E1
1.931822674E1,-8.924011230E0,4.845576286E-1,9.754920959E0
1.932822674E1,-8.180432320E0,7.706332207E-1,9.244421005E0
1.933822671E1,-7.008969307E0,1.393249512E0,8.218801498E0
1.934822674E1,-6.020141602E0,2.608113766E0,7.146471977E0
1.935822677E1,-5.921767235E0,4.417920589E0,6.632119179E0
1.936822677E1,-5.397447586E0,5.491744995E0,6.037847042E0
1.937822677E1,-4.531334877E0,6.333396435E0,6.770211220E0
1.938822677E1,-3.576334238E0,6.532217979E0,7.188165665E0
1.939822674E1,-2.747594833E0,6.626852512E0,6.912380219E0
1.940822674E1,-2.023464918E0,6.870558739E0,6.456083298E0
1.941822677E1,-1.274975061E0,7.339206696E0,6.257050514E0
1.942822677E1,-4.350299835E-1,7.877146721E0,6.424593925E0
1.943822677E1,2.281837463E-1,8.309834480E0,6.668868542E0
1.944822674E1,9.192876816E-1,8.702973366E0,6.821477890E0
1.945822677E1,1.414756775E0,8.976540565E0,6.777460098E0
1.946822677E1,1.578768492E0,8.794547081E0,6.265884399E0
1.947822677E1,9.497592449E-1,8.427196503E0,5.551311493E0
1.948822674E1,1.792242527E-1,7.831774712E0,4.816169739E0
1.949822670E1,-4.382126331E-1,7.208095551E0,4.187082291E0
1.950822670E1,-6.374711990E-1,6.678283691E0,3.811528206E0
1.951822674E1,-6.568620205E-1,6.234795570E0,3.966544151E0
1.952822677E1,-7.247068882E-1,6.083018303E0,4.283970356E0
1.953822677E1,-1.269532442E0,5.961194515E0,4.444268227E0
1.954822677E1,-2.271307230E0,6.019503593E0,4.471066952E0
1.955825970E1,-3.482815266E0,6.067986488E0,4.218045235E0
1.956829307E1,-5.234112740E0,6.032605648E0,3.189264774E0
1.957832640E1,-7.319010735E0,6.063622475E0,2.499001026E0
1.958835973E1,-9.573175430E0,6.525856495E0,1.934835196E0
1.959839303E1,-1.172873497E1,7.691461086E0,1.634003878E0
1.960842637E1,-1.345705509E1,8.898432732E0,2.392580986E0
1.961845903E1,-1.445825577E1,8.452973366E0,5.613316536E0
1.962849167E1,-1.426278114E1,7.324216843E0,7.381434441E0
1.963852430E1,-1.415796471E1,6.152047634E0,3.631365299E0
1.964855690E1,-1.520501041E1,6.538276672E0,-1.685330629E0
1.965858930E1,-1.649114227E1,8.442986488E0,-2.691786766E0
1.966862210E1,-1.454477119E1,1.054109478E1,4.140567780E-2
1.967865543E1,-1.078961372E1,9.773645401E0,3.861044407E0
1.968868806E1,-7.060398102E0,6.878255367E0,6.310070038E0
1.969872140E1,-4.552231789E0,3.035495281E0,7.101908684E0
1.970875470E1,-3.966194153E0,1.240711212E-1,7.617522717E0
1.971878803E1,-3.946300268E0,-1.928168297E0,9.251150131E0
1.972882140E1,-4.043166161E0,-3.729099274E0,1.290531921E1
1.973885473E1,-3.106489658E0,-3.551310539E0,1.547898006E1
1.974888806E1,-3.738118887E0,-1.055474281E0,1.289433098E1
1.975892136E1,-7.306824684E0,3.721758366E0,7.974894524E0
1.976895473E1,-9.173152924E0,6.268782616E0,5.290107727E0
1.977898810E1,-9.544689178E0,6.761742592E0,3.310740471E0
1.978902143E1,-8.270679474E0,7.181871414E0,5.620222092E0
1.979905476E1,-6.683112144E0,8.030529976E0,7.662933826E0
1.980908809E1,-6.069511890E0,8.837486267E0,8.827017784E0
1.981912143E1,-6.388977051E0,8.900742531E0,1.026815510E1
1.982915473E1,-6.743622303E0,8.055939674E0,1.058636761E1
1.983918806E1,-6.788871765E0,7.544590950E0,9.926052094E0
1.984922139E1,-6.396967888E0,7.454668999E0,8.830902100E0
1.985922139E1,-5.692568302E0,7.045412540E0,7.356232643E0
1.986922136E1,-4.735047340E0,6.435246468E0,5.987235069E0
1.987922139E1,-3.826239586E0,5.860118866E0,5.054738522E0
1.988922143E1,-2.839384794E0,5.582754612E0,5.051486015E0
1.989922142E1,-1.851362705E0,5.658935547E0,5.261418343E0
1.990922139E1,-8.921346664E-1,5.795256615E0,5.574218750E0
1.991922206E1,-1.377482414E-1,5.919377327E0,5.680150032E0
1.992922279E1,2.502622604E-1,6.127182961E0,5.588690758E0
1.993922349E1,4.775831699E-1,6.627790451E0,5.807433605E0
1.994922419E1,5.517723560E-1,7.108358860E0,5.996768951E0
1.995922509E1,4.495034218E-1,7.666204929E0,6.195983887E0
1.996922562E1,1.964445114E-1,8.375071526E0,6.643016815E0
1.997922562E1,-8.837938309E-2,8.757786751E0,7.062213898E0
1.998922636E1,-3.184065819E-1,8.692546844E0,6.791548252E0
1.999922639E1,-5.573163033E-1,8.557868958E0,6.471539497E0
2.000922639E1,-1.249233246E0,8.200049400E0,6.473536491E0
2.001922636E1,-1.922604561E0,7.955864906E0,6.587538242E0
2.002922632E1,-2.786699295E0,7.955887794E0,6.340604782E0
2.003922635E1,-3.873553753E0,8.395402908E0,6.378001213E0
2.004922635E1,-5.063246250E0,8.815457344E0,6.624096394E0
2.005922635E1,-6.357266426E0,8.913394928E0,7.007674217E0
2.006922632E1,-7.507169724E0,8.733057022E0,7.415248394E0
2.007922632E1,-8.558383942E0,8.276097298E0,7.527290344E0
2.008922635E1,-9.260432243E0,7.705661774E0,7.304526806E0
2.009922635E1,-9.844640732E0,7.291659355E0,7.411335945E0
2.010922635E1,-9.585845947E0,6.896403790E0,7.814297676E0
2.011922632E1,-8.596456528E0,6.934411049E0,8.428955078E0
2.012922632E1,-8.214756012E0,7.930907249E0,8.341742516E0
2.013922632E1,-8.457195282E0,8.530744553E0,7.296446800E0
2.014922635E1,-8.049163818E0,8.338430405E0,5.693491936E0
2.015922635E1,-8.840811729E0,7.386239052E0,5.210780621E0
2.016922635E1,-8.710853577E0,6.443897247E0,4.583905697E0
2.017922632E1,-7.931177139E0,4.569075584E0,5.092729568E0
2.018922632E1,-6.187953472E0,3.758116007E0,9.892163277E0
2.019922635E1,-5.431590080E0,2.923640728E0,1.427753639E1
2.020922635E1,-5.111025333E0,2.890107155E0,1.645334625E1
2.021922635E1,-5.119405746E0,4.971533775E0,1.804845619E1
2.022922632E1,-5.057377815E0,8.445815086E0,1.768038559E1
2.023922635E1,-5.163327217E0,9.843410492E0,1.574687004E1
2.024922638E1,-6.766073227E0,8.600934029E0,1.391968155E1
2.025922638E1,-8.025840759E0,5.081010818E0,1.169853878E1
2.026922638E1,-8.657141685E0,2.152769566E0,1.015754318E1
2.027922638E1,-8.114891052E0,9.132733345E-1,9.318382263E0
2.028922635E1,-6.519710064E0,1.087473869E0,8.648688316E0
2.029922635E1,-5.416081905E0,1.124720097E0,8.727123260E0
2.030922638E1,-4.800141811E0,1.191979885E0,8.197277069E0
2.031922638E1,-4.549276352E0,1.553925037E0,7.531769753E0
2.032922638E1,-4.879608631E0,2.411478519E0,7.410052299E0
2.033922635E1,-4.862596512E0,3.669578075E0,6.707425594E0
2.034922638E1,-5.072518826E0,4.698948383E0,7.784506798E0
2.035922638E1,-4.801550388E0,5.456410408E0,8.179233551E0
2.036922638E1,-3.731614590E0,6.301825047E0,7.425877571E0
2.037922635E1,-2.923453808E0,6.905274868E0,6.740589619E0
2.038922631E1,-2.099015713E0,7.387431622E0,6.361421585E0
2.039922635E1,-1.452794552E0,7.903320789E0,6.543388367E0
2.040922635E1,-9.845728874E-1,8.155021667E0,6.895896912E0
2.041922635E1,2.686083317E-1,8.742286682E0,7.323870659E0
2.042922635E1,1.468867779E0,9.097070694E0,7.809265137E0
2.043922638E1,2.105334759E0,8.910806656E0,7.742455482E0
2.044922638E1,1.948264837E0,8.221184731E0,6.851312160E0
2.045922638E1,1.107274294E0,7.114563465E0,6.085198402E0
2.046922638E1,4.317910671E-1,6.160110950E0,5.189067364E0
2.047922638E1,8.529472351E-2,5.480051041E0,4.496254444E0
2.048922635E1,-4.290044308E-1,5.157222748E0,4.388651848E0
2.049922631E1,-6.032018661E-1,5.322482109E0,4.714008808E0
2.050922634E1,-8.489460945E-1,5.631715775E0,5.037572861E0
2.051922634E1,-1.498585463E0,5.703779221E0,5.205153465E0
2.052922634E1,-2.346935034E0,5.846796513E0,5.042186260E0
2.053922631E1,-3.484259844E0,5.918466091E0,4.918201447E0
2.054922631E1,-4.978900909E0,5.772609711E0,4.688266754E0
2.055922611E1,-6.633213997E0,5.621136665E0,3.881916761E0
2.056922611E1,-8.380058289E0,5.774167061E0,2.560089111E0
2.057922611E1,-1.057206345E1,5.891846180E0,1.181549788E0
2.058922611E1,-1.235945415E1,6.363756657E0,7.224304676E-1
2.059922608E1,-1.388447952E1,7.460247040E0,2.968403816E0
2.060922608E1,-1.400687027E1,8.194892883E0,6.120035172E0
2.061922541E1,-1.364731789E1,8.431597710E0,5.669842720E0
2.062922471E1,-1.318501663E1,8.554594040E0,2.085344076E0
2.063922388E1,-1.291437626E1,9.374580383E0,-5.087652206E-1
2.064922291E1,-1.226279354E1,9.635232925E0,9.390535355E-1
2.065922224E1,-1.144185829E1,8.399570465E0,4.291430950E0
2.066922157E1,-9.587193489E0,5.860511780E0,6.719466209E0
2.067922154E1,-8.305473328E0,2.301716328E0,6.939503193E0
2.068922154E1,-7.704990387E0,-7.953376770E-1,6.846039772E0
2.069922107E1,-6.807175159E0,-3.636197090E0,1.065398312E1
2.070922041E1,-3.398498297E0,-3.528999329E0,1.447252750E1
2.071922041E1,-3.306166410E0,-3.533378601E0,1.438871670E1
2.072922041E1,-8.531980515E-1,1.449168205E0,1.236574650E1
2.073921994E1,-2.686873674E0,4.024106026E0,9.942409515E0
2.074921990E1,-5.627167702E0,5.169235706E0,8.696108818E0
2.075921991E1,-8.369536400E0,5.417894363E0,6.514536858E0
2.076921994E1,-9.651846886E0,5.966314316E0,5.419266701E0
2.077921997E1,-9.100188255E0,7.018306732E0,6.975381851E0
2.078921997E1,-7.633226395E0,8.094539642E0,9.581062317E0
2.079921997E1,-6.414233208E0,8.646010399E0,1.117990112E1
2.080921994E1,-5.974509239E0,8.359735489E0,1.125571346E1
2.081921997E1,-6.114377022E0,8.340926170E0,1.029074669E1
2.082921997E1,-5.728498459E0,8.609271049E0,9.188282013E0
2.083921997E1,-4.852995872E0,8.482585907E0,8.113549232E0
2.084921994E1,-3.572501898E0,8.071926117E0,6.591278076E0
2.085922017E1,-2.567505598E0,7.467968464E0,5.654655457E0
